"rt","stimulus","key_press","trial_type","trial_index","time_elapsed","internal_node_id","responses","view_history","test_part","correct_response","outcome","context","cc","sc","correct"
"7163.700000017881","<p><b>Welcome to the Picture Learning Game!</b></p>
      <p>The game will take ~35 minutes to complete, and you can make up to $17.50.</p>
      <p>You must use a desktop or laptop computer computer (no mobile devices).</p>
      <p><em>Press any key to continue.</em></p>","32","html-keyboard-response","0","7200","0.0-0.0","","","","","","","","",""
"26055.5","","","survey-text","1","33265","0.0-1.0","{""aws"":""A1RV2LERVS0A4H""}","","","","","","","",""
"56235.80000001192","","","survey-text","2","89512","0.0-2.0","{""age"":""34"",""english"":""Y"",""handedness"":""R"",""desktop"":""Y""}","","","","","","","",""
"42609","","","instructions","3","132123","0.0-3.0","","[{""page_index"":0,""viewing_time"":10926.09999999404},{""page_index"":1,""viewing_time"":5877.5},{""page_index"":2,""viewing_time"":4236},{""page_index"":3,""viewing_time"":18178.30000001192},{""page_index"":4,""viewing_time"":3389}]","","","","","","",""
"null","sample1.bmp","null","image-keyboard-response","4","133127","0.0-4.0","","","","","","","","",""
"590.4000000059605","arrows.png","38","image-keyboard-response","5","134021","0.0-5.0","","","","","","","","",""
"134807.79999998212","","","instructions","6","268834","0.0-6.0","","[{""page_index"":0,""viewing_time"":1458},{""page_index"":1,""viewing_time"":1297.199999988079},{""page_index"":2,""viewing_time"":44295.30000001192},{""page_index"":3,""viewing_time"":9397.899999976158},{""page_index"":4,""viewing_time"":7556.100000023842},{""page_index"":5,""viewing_time"":5899.0999999940395},{""page_index"":6,""viewing_time"":64903.69999998808}]","","","","","","",""
"null","<div style=""font-size:60px;""> </div>","null","html-keyboard-response","7","269137","0.0-7.0-0.0","","","fixation_1","","","","","",""
"null","","null","image-keyboard-response","8","269143","0.0-7.0-1.0","","","test","downarrow","0","1","FALSE","FALSE",""
"null","<div style=""font-size:60px;""> </div>","null","html-keyboard-response","9","269445","0.0-7.0-2.0","","","fixation_2","","","","","",""
"null","img_3.bmp","null","image-keyboard-response","10","270449","0.0-7.0-3.0","","","img_on","","","","","",""
"null","<div style=""font-size:60px;""> </div>","null","html-keyboard-response","11","270751","0.0-7.0-4.0","","","fixation_3","","","","","",""
"null","","null","html-keyboard-response","12","270758","0.0-7.0-5.0","","","test","downarrow","0","1","FALSE","FALSE",""
"null","<div style=""font-size:60px;""> </div>","null","html-keyboard-response","13","271060","0.0-7.0-6.0","","","fixation_4","","","","","",""
"990","arrows.png","39","image-keyboard-response","14","272051","0.0-7.0-7.0","","","test","downarrow","0","1","FALSE","FALSE","false"
"null","<p style=""color: red; font-size:300%;"">incorrect: $0</p>","null","html-keyboard-response","15","273304","0.0-7.0-8.0","","","","","","","","",""
"null","<div style=""font-size:60px;""> </div>","null","html-keyboard-response","16","274609","0.0-7.0-0.1","","","fixation_1","","","","","",""
"null","","null","image-keyboard-response","17","274616","0.0-7.0-1.1","","","test","uparrow","1","1","FALSE","FALSE",""
"null","<div style=""font-size:60px;""> </div>","null","html-keyboard-response","18","274917","0.0-7.0-2.1","","","fixation_2","","","","","",""
"null","img_1.bmp","null","image-keyboard-response","19","275919","0.0-7.0-3.1","","","img_on","","","","","",""
"null","<div style=""font-size:60px;""> </div>","null","html-keyboard-response","20","276222","0.0-7.0-4.1","","","fixation_3","","","","","",""
"null","","null","html-keyboard-response","21","276228","0.0-7.0-5.1","","","test","uparrow","1","1","FALSE","FALSE",""
"null","<div style=""font-size:60px;""> </div>","null","html-keyboard-response","22","276529","0.0-7.0-6.1","","","fixation_4","","","","","",""
"1401.2000000178814","arrows.png","39","image-keyboard-response","23","277932","0.0-7.0-7.1","","","test","uparrow","1","1","FALSE","FALSE","false"
"null","<p style=""color: red; font-size:300%;"">incorrect: $0</p>","null","html-keyboard-response","24","279183","0.0-7.0-8.1","","","","","","","","",""
"null","<div style=""font-size:60px;""> </div>","null","html-keyboard-response","25","280237","0.0-7.0-0.2","","","fixation_1","","","","","",""
"null","","null","image-keyboard-response","26","280245","0.0-7.0-1.2","","","test","leftarrow","0","1","FALSE","FALSE",""
"null","<div style=""font-size:60px;""> </div>","null","html-keyboard-response","27","280547","0.0-7.0-2.2","","","fixation_2","","","","","",""
"null","img_4.bmp","null","image-keyboard-response","28","281549","0.0-7.0-3.2","","","img_on","","","","","",""
"null","<div style=""font-size:60px;""> </div>","null","html-keyboard-response","29","281852","0.0-7.0-4.2","","","fixation_3","","","","","",""
"null","","null","html-keyboard-response","30","281859","0.0-7.0-5.2","","","test","leftarrow","0","1","FALSE","FALSE",""
"null","<div style=""font-size:60px;""> </div>","null","html-keyboard-response","31","282161","0.0-7.0-6.2","","","fixation_4","","","","","",""
"631.5","arrows.png","37","image-keyboard-response","32","282794","0.0-7.0-7.2","","","test","leftarrow","0","1","FALSE","FALSE","true"
"null","<p style=""color: green; font-size:300%;"">correct: $2.50</p>","null","html-keyboard-response","33","284047","0.0-7.0-8.2","","","","","","","","",""
"null","<div style=""font-size:60px;""> </div>","null","html-keyboard-response","34","285100","0.0-7.0-0.3","","","fixation_1","","","","","",""
"null","","null","image-keyboard-response","35","285106","0.0-7.0-1.3","","","test","rightarrow","1","1","FALSE","FALSE",""
"null","<div style=""font-size:60px;""> </div>","null","html-keyboard-response","36","285407","0.0-7.0-2.3","","","fixation_2","","","","","",""
"null","img_2.bmp","null","image-keyboard-response","37","286408","0.0-7.0-3.3","","","img_on","","","","","",""
"null","<div style=""font-size:60px;""> </div>","null","html-keyboard-response","38","286710","0.0-7.0-4.3","","","fixation_3","","","","","",""
"null","","null","html-keyboard-response","39","286716","0.0-7.0-5.3","","","test","rightarrow","1","1","FALSE","FALSE",""
"null","<div style=""font-size:60px;""> </div>","null","html-keyboard-response","40","287017","0.0-7.0-6.3","","","fixation_4","","","","","",""
"548.5","arrows.png","38","image-keyboard-response","41","287568","0.0-7.0-7.3","","","test","rightarrow","1","1","FALSE","FALSE","false"
"null","<p style=""color: red; font-size:300%;"">incorrect: $0</p>","null","html-keyboard-response","42","288820","0.0-7.0-8.3","","","","","","","","",""
"null","<div style=""font-size:60px;""> </div>","null","html-keyboard-response","43","289372","0.0-7.0-0.4","","","fixation_1","","","","","",""
"null","","null","image-keyboard-response","44","289380","0.0-7.0-1.4","","","test","downarrow","0","1","FALSE","FALSE",""
"null","<div style=""font-size:60px;""> </div>","null","html-keyboard-response","45","289682","0.0-7.0-2.4","","","fixation_2","","","","","",""
"null","img_3.bmp","null","image-keyboard-response","46","290685","0.0-7.0-3.4","","","img_on","","","","","",""
"null","<div style=""font-size:60px;""> </div>","null","html-keyboard-response","47","290987","0.0-7.0-4.4","","","fixation_3","","","","","",""
"null","","null","html-keyboard-response","48","290992","0.0-7.0-5.4","","","test","downarrow","0","1","FALSE","FALSE",""
"null","<div style=""font-size:60px;""> </div>","null","html-keyboard-response","49","291294","0.0-7.0-6.4","","","fixation_4","","","","","",""
"600.5","arrows.png","40","image-keyboard-response","50","291896","0.0-7.0-7.4","","","test","downarrow","0","1","FALSE","FALSE","true"
"null","<p style=""color: green; font-size:300%;"">correct: $2.50</p>","null","html-keyboard-response","51","293149","0.0-7.0-8.4","","","","","","","","",""
"null","<div style=""font-size:60px;""> </div>","null","html-keyboard-response","52","294702","0.0-7.0-0.5","","","fixation_1","","","","","",""
"null","","null","image-keyboard-response","53","294708","0.0-7.0-1.5","","","test","uparrow","1","1","FALSE","FALSE",""
"null","<div style=""font-size:60px;""> </div>","null","html-keyboard-response","54","295010","0.0-7.0-2.5","","","fixation_2","","","","","",""
"null","img_1.bmp","null","image-keyboard-response","55","296012","0.0-7.0-3.5","","","img_on","","","","","",""
"null","<div style=""font-size:60px;""> </div>","null","html-keyboard-response","56","296313","0.0-7.0-4.5","","","fixation_3","","","","","",""
"null","","null","html-keyboard-response","57","296320","0.0-7.0-5.5","","","test","uparrow","1","1","FALSE","FALSE",""
"null","<div style=""font-size:60px;""> </div>","null","html-keyboard-response","58","296625","0.0-7.0-6.5","","","fixation_4","","","","","",""
"781","arrows.png","38","image-keyboard-response","59","297408","0.0-7.0-7.5","","","test","uparrow","1","1","FALSE","FALSE","true"
"null","<p style=""color: green; font-size:300%;"">correct: $7.50</p>","null","html-keyboard-response","60","298662","0.0-7.0-8.5","","","","","","","","",""
"null","<div style=""font-size:60px;""> </div>","null","html-keyboard-response","61","299714","0.0-7.0-0.6","","","fixation_1","","","","","",""
"null","","null","image-keyboard-response","62","299721","0.0-7.0-1.6","","","test","rightarrow","1","1","FALSE","FALSE",""
"null","<div style=""font-size:60px;""> </div>","null","html-keyboard-response","63","300023","0.0-7.0-2.6","","","fixation_2","","","","","",""
"null","img_2.bmp","null","image-keyboard-response","64","301025","0.0-7.0-3.6","","","img_on","","","","","",""
"null","<div style=""font-size:60px;""> </div>","null","html-keyboard-response","65","301326","0.0-7.0-4.6","","","fixation_3","","","","","",""
"null","","null","html-keyboard-response","66","301333","0.0-7.0-5.6","","","test","rightarrow","1","1","FALSE","FALSE",""
"null","<div style=""font-size:60px;""> </div>","null","html-keyboard-response","67","301635","0.0-7.0-6.6","","","fixation_4","","","","","",""
"862.5999999940395","arrows.png","39","image-keyboard-response","68","302499","0.0-7.0-7.6","","","test","rightarrow","1","1","FALSE","FALSE","true"
"null","<p style=""color: green; font-size:300%;"">correct: $7.50</p>","null","html-keyboard-response","69","303751","0.0-7.0-8.6","","","","","","","","",""
"null","<div style=""font-size:60px;""> </div>","null","html-keyboard-response","70","305309","0.0-7.0-0.7","","","fixation_1","","","","","",""
"null","","null","image-keyboard-response","71","305316","0.0-7.0-1.7","","","test","leftarrow","0","1","FALSE","FALSE",""
"null","<div style=""font-size:60px;""> </div>","null","html-keyboard-response","72","305617","0.0-7.0-2.7","","","fixation_2","","","","","",""
"null","img_4.bmp","null","image-keyboard-response","73","306620","0.0-7.0-3.7","","","img_on","","","","","",""
"null","<div style=""font-size:60px;""> </div>","null","html-keyboard-response","74","306921","0.0-7.0-4.7","","","fixation_3","","","","","",""
"null","","null","html-keyboard-response","75","306928","0.0-7.0-5.7","","","test","leftarrow","0","1","FALSE","FALSE",""
"null","<div style=""font-size:60px;""> </div>","null","html-keyboard-response","76","307232","0.0-7.0-6.7","","","fixation_4","","","","","",""
"547.3000000119209","arrows.png","37","image-keyboard-response","77","307781","0.0-7.0-7.7","","","test","leftarrow","0","1","FALSE","FALSE","true"
"null","<p style=""color: green; font-size:300%;"">correct: $2.50</p>","null","html-keyboard-response","78","309033","0.0-7.0-8.7","","","","","","","","",""
"null","<div style=""font-size:60px;""> </div>","null","html-keyboard-response","79","309837","0.0-7.0-0.8","","","fixation_1","","","","","",""
"null","","null","image-keyboard-response","80","309843","0.0-7.0-1.8","","","test","leftarrow","0","1","FALSE","FALSE",""
"null","<div style=""font-size:60px;""> </div>","null","html-keyboard-response","81","310145","0.0-7.0-2.8","","","fixation_2","","","","","",""
"null","img_4.bmp","null","image-keyboard-response","82","311148","0.0-7.0-3.8","","","img_on","","","","","",""
"null","<div style=""font-size:60px;""> </div>","null","html-keyboard-response","83","311450","0.0-7.0-4.8","","","fixation_3","","","","","",""
"null","","null","html-keyboard-response","84","311457","0.0-7.0-5.8","","","test","leftarrow","0","1","FALSE","FALSE",""
"null","<div style=""font-size:60px;""> </div>","null","html-keyboard-response","85","311759","0.0-7.0-6.8","","","fixation_4","","","","","",""
"402.80000001192093","arrows.png","37","image-keyboard-response","86","312164","0.0-7.0-7.8","","","test","leftarrow","0","1","FALSE","FALSE","true"
"null","<p style=""color: green; font-size:300%;"">correct: $2.50</p>","null","html-keyboard-response","87","313415","0.0-7.0-8.8","","","","","","","","",""
"null","<div style=""font-size:60px;""> </div>","null","html-keyboard-response","88","314718","0.0-7.0-0.9","","","fixation_1","","","","","",""
"null","","null","image-keyboard-response","89","314725","0.0-7.0-1.9","","","test","downarrow","0","1","FALSE","FALSE",""
"null","<div style=""font-size:60px;""> </div>","null","html-keyboard-response","90","315026","0.0-7.0-2.9","","","fixation_2","","","","","",""
"null","img_3.bmp","null","image-keyboard-response","91","316029","0.0-7.0-3.9","","","img_on","","","","","",""
"null","<div style=""font-size:60px;""> </div>","null","html-keyboard-response","92","316331","0.0-7.0-4.9","","","fixation_3","","","","","",""
"null","","null","html-keyboard-response","93","316338","0.0-7.0-5.9","","","test","downarrow","0","1","FALSE","FALSE",""
"null","<div style=""font-size:60px;""> </div>","null","html-keyboard-response","94","316640","0.0-7.0-6.9","","","fixation_4","","","","","",""
"710.5","arrows.png","39","image-keyboard-response","95","317352","0.0-7.0-7.9","","","test","downarrow","0","1","FALSE","FALSE","false"
"null","<p style=""color: red; font-size:300%;"">incorrect: $0</p>","null","html-keyboard-response","96","318604","0.0-7.0-8.9","","","","","","","","",""
"null","<div style=""font-size:60px;""> </div>","null","html-keyboard-response","97","319908","0.0-7.0-0.10","","","fixation_1","","","","","",""
"null","","null","image-keyboard-response","98","319914","0.0-7.0-1.10","","","test","rightarrow","1","1","FALSE","FALSE",""
"null","<div style=""font-size:60px;""> </div>","null","html-keyboard-response","99","320216","0.0-7.0-2.10","","","fixation_2","","","","","",""
"null","img_2.bmp","null","image-keyboard-response","100","321219","0.0-7.0-3.10","","","img_on","","","","","",""
"null","<div style=""font-size:60px;""> </div>","null","html-keyboard-response","101","321521","0.0-7.0-4.10","","","fixation_3","","","","","",""
"null","","null","html-keyboard-response","102","321526","0.0-7.0-5.10","","","test","rightarrow","1","1","FALSE","FALSE",""
"null","<div style=""font-size:60px;""> </div>","null","html-keyboard-response","103","321828","0.0-7.0-6.10","","","fixation_4","","","","","",""
"372.30000001192093","arrows.png","39","image-keyboard-response","104","322202","0.0-7.0-7.10","","","test","rightarrow","1","1","FALSE","FALSE","true"
"null","<p style=""color: green; font-size:300%;"">correct: $7.50</p>","null","html-keyboard-response","105","323456","0.0-7.0-8.10","","","","","","","","",""
"null","<div style=""font-size:60px;""> </div>","null","html-keyboard-response","106","325010","0.0-7.0-0.11","","","fixation_1","","","","","",""
"null","","null","image-keyboard-response","107","325017","0.0-7.0-1.11","","","test","uparrow","1","1","FALSE","FALSE",""
"null","<div style=""font-size:60px;""> </div>","null","html-keyboard-response","108","325319","0.0-7.0-2.11","","","fixation_2","","","","","",""
"null","img_1.bmp","null","image-keyboard-response","109","326321","0.0-7.0-3.11","","","img_on","","","","","",""
"null","<div style=""font-size:60px;""> </div>","null","html-keyboard-response","110","326623","0.0-7.0-4.11","","","fixation_3","","","","","",""
"null","","null","html-keyboard-response","111","326629","0.0-7.0-5.11","","","test","uparrow","1","1","FALSE","FALSE",""
"null","<div style=""font-size:60px;""> </div>","null","html-keyboard-response","112","326931","0.0-7.0-6.11","","","fixation_4","","","","","",""
"463.10000002384186","arrows.png","38","image-keyboard-response","113","327396","0.0-7.0-7.11","","","test","uparrow","1","1","FALSE","FALSE","true"
"null","<p style=""color: green; font-size:300%;"">correct: $7.50</p>","null","html-keyboard-response","114","328648","0.0-7.0-8.11","","","","","","","","",""
"null","<div style=""font-size:60px;""> </div>","null","html-keyboard-response","115","330201","0.0-7.0-0.12","","","fixation_1","","","","","",""
"null","","null","image-keyboard-response","116","330209","0.0-7.0-1.12","","","test","rightarrow","1","1","FALSE","FALSE",""
"null","<div style=""font-size:60px;""> </div>","null","html-keyboard-response","117","330516","0.0-7.0-2.12","","","fixation_2","","","","","",""
"null","img_2.bmp","null","image-keyboard-response","118","331519","0.0-7.0-3.12","","","img_on","","","","","",""
"null","<div style=""font-size:60px;""> </div>","null","html-keyboard-response","119","331821","0.0-7.0-4.12","","","fixation_3","","","","","",""
"null","","null","html-keyboard-response","120","331827","0.0-7.0-5.12","","","test","rightarrow","1","1","FALSE","FALSE",""
"null","<div style=""font-size:60px;""> </div>","null","html-keyboard-response","121","332129","0.0-7.0-6.12","","","fixation_4","","","","","",""
"557.9000000059605","arrows.png","39","image-keyboard-response","122","332688","0.0-7.0-7.12","","","test","rightarrow","1","1","FALSE","FALSE","true"
"null","<p style=""color: green; font-size:300%;"">correct: $7.50</p>","null","html-keyboard-response","123","333941","0.0-7.0-8.12","","","","","","","","",""
"null","<div style=""font-size:60px;""> </div>","null","html-keyboard-response","124","334744","0.0-7.0-0.13","","","fixation_1","","","","","",""
"null","","null","image-keyboard-response","125","334751","0.0-7.0-1.13","","","test","downarrow","0","1","FALSE","FALSE",""
"null","<div style=""font-size:60px;""> </div>","null","html-keyboard-response","126","335053","0.0-7.0-2.13","","","fixation_2","","","","","",""
"null","img_3.bmp","null","image-keyboard-response","127","336058","0.0-7.0-3.13","","","img_on","","","","","",""
"null","<div style=""font-size:60px;""> </div>","null","html-keyboard-response","128","336362","0.0-7.0-4.13","","","fixation_3","","","","","",""
"null","","null","html-keyboard-response","129","336369","0.0-7.0-5.13","","","test","downarrow","0","1","FALSE","FALSE",""
"null","<div style=""font-size:60px;""> </div>","null","html-keyboard-response","130","336671","0.0-7.0-6.13","","","fixation_4","","","","","",""
"593","arrows.png","40","image-keyboard-response","131","337265","0.0-7.0-7.13","","","test","downarrow","0","1","FALSE","FALSE","true"
"null","<p style=""color: green; font-size:300%;"">correct: $2.50</p>","null","html-keyboard-response","132","338517","0.0-7.0-8.13","","","","","","","","",""
"null","<div style=""font-size:60px;""> </div>","null","html-keyboard-response","133","339570","0.0-7.0-0.14","","","fixation_1","","","","","",""
"null","","null","image-keyboard-response","134","339578","0.0-7.0-1.14","","","test","leftarrow","0","1","FALSE","FALSE",""
"null","<div style=""font-size:60px;""> </div>","null","html-keyboard-response","135","339880","0.0-7.0-2.14","","","fixation_2","","","","","",""
"null","img_4.bmp","null","image-keyboard-response","136","340883","0.0-7.0-3.14","","","img_on","","","","","",""
"null","<div style=""font-size:60px;""> </div>","null","html-keyboard-response","137","341186","0.0-7.0-4.14","","","fixation_3","","","","","",""
"null","","null","html-keyboard-response","138","341192","0.0-7.0-5.14","","","test","leftarrow","0","1","FALSE","FALSE",""
"null","<div style=""font-size:60px;""> </div>","null","html-keyboard-response","139","341494","0.0-7.0-6.14","","","fixation_4","","","","","",""
"349","arrows.png","37","image-keyboard-response","140","341844","0.0-7.0-7.14","","","test","leftarrow","0","1","FALSE","FALSE","true"
"null","<p style=""color: green; font-size:300%;"">correct: $2.50</p>","null","html-keyboard-response","141","343099","0.0-7.0-8.14","","","","","","","","",""
"null","<div style=""font-size:60px;""> </div>","null","html-keyboard-response","142","344402","0.0-7.0-0.15","","","fixation_1","","","","","",""
"null","","null","image-keyboard-response","143","344409","0.0-7.0-1.15","","","test","uparrow","1","1","FALSE","FALSE",""
"null","<div style=""font-size:60px;""> </div>","null","html-keyboard-response","144","344711","0.0-7.0-2.15","","","fixation_2","","","","","",""
"null","img_1.bmp","null","image-keyboard-response","145","345714","0.0-7.0-3.15","","","img_on","","","","","",""
"null","<div style=""font-size:60px;""> </div>","null","html-keyboard-response","146","346016","0.0-7.0-4.15","","","fixation_3","","","","","",""
"null","","null","html-keyboard-response","147","346023","0.0-7.0-5.15","","","test","uparrow","1","1","FALSE","FALSE",""
"null","<div style=""font-size:60px;""> </div>","null","html-keyboard-response","148","346325","0.0-7.0-6.15","","","fixation_4","","","","","",""
"879.4000000059605","arrows.png","38","image-keyboard-response","149","347206","0.0-7.0-7.15","","","test","uparrow","1","1","FALSE","FALSE","true"
"null","<p style=""color: green; font-size:300%;"">correct: $7.50</p>","null","html-keyboard-response","150","348458","0.0-7.0-8.15","","","","","","","","",""
"null","<div style=""font-size:60px;""> </div>","null","html-keyboard-response","151","349011","0.0-7.0-0.16","","","fixation_1","","","","","",""
"null","","null","image-keyboard-response","152","349019","0.0-7.0-1.16","","","test","uparrow","1","1","FALSE","FALSE",""
"null","<div style=""font-size:60px;""> </div>","null","html-keyboard-response","153","349321","0.0-7.0-2.16","","","fixation_2","","","","","",""
"null","img_1.bmp","null","image-keyboard-response","154","350324","0.0-7.0-3.16","","","img_on","","","","","",""
"null","<div style=""font-size:60px;""> </div>","null","html-keyboard-response","155","350626","0.0-7.0-4.16","","","fixation_3","","","","","",""
"null","","null","html-keyboard-response","156","350632","0.0-7.0-5.16","","","test","uparrow","1","1","FALSE","FALSE",""
"null","<div style=""font-size:60px;""> </div>","null","html-keyboard-response","157","350934","0.0-7.0-6.16","","","fixation_4","","","","","",""
"539.4000000059605","arrows.png","38","image-keyboard-response","158","351474","0.0-7.0-7.16","","","test","uparrow","1","1","FALSE","FALSE","true"
"null","<p style=""color: green; font-size:300%;"">correct: $7.50</p>","null","html-keyboard-response","159","352727","0.0-7.0-8.16","","","","","","","","",""
"null","<div style=""font-size:60px;""> </div>","null","html-keyboard-response","160","354281","0.0-7.0-0.17","","","fixation_1","","","","","",""
"null","","null","image-keyboard-response","161","354287","0.0-7.0-1.17","","","test","leftarrow","0","1","FALSE","FALSE",""
"null","<div style=""font-size:60px;""> </div>","null","html-keyboard-response","162","354589","0.0-7.0-2.17","","","fixation_2","","","","","",""
"null","img_4.bmp","null","image-keyboard-response","163","355591","0.0-7.0-3.17","","","img_on","","","","","",""
"null","<div style=""font-size:60px;""> </div>","null","html-keyboard-response","164","355893","0.0-7.0-4.17","","","fixation_3","","","","","",""
"null","","null","html-keyboard-response","165","355899","0.0-7.0-5.17","","","test","leftarrow","0","1","FALSE","FALSE",""
"null","<div style=""font-size:60px;""> </div>","null","html-keyboard-response","166","356201","0.0-7.0-6.17","","","fixation_4","","","","","",""
"781.0999999940395","arrows.png","37","image-keyboard-response","167","356984","0.0-7.0-7.17","","","test","leftarrow","0","1","FALSE","FALSE","true"
"null","<p style=""color: green; font-size:300%;"">correct: $2.50</p>","null","html-keyboard-response","168","358238","0.0-7.0-8.17","","","","","","","","",""
"null","<div style=""font-size:60px;""> </div>","null","html-keyboard-response","169","358792","0.0-7.0-0.18","","","fixation_1","","","","","",""
"null","","null","image-keyboard-response","170","358799","0.0-7.0-1.18","","","test","rightarrow","1","1","FALSE","FALSE",""
"null","<div style=""font-size:60px;""> </div>","null","html-keyboard-response","171","359101","0.0-7.0-2.18","","","fixation_2","","","","","",""
"null","img_2.bmp","null","image-keyboard-response","172","360104","0.0-7.0-3.18","","","img_on","","","","","",""
"null","<div style=""font-size:60px;""> </div>","null","html-keyboard-response","173","360405","0.0-7.0-4.18","","","fixation_3","","","","","",""
"null","","null","html-keyboard-response","174","360411","0.0-7.0-5.18","","","test","rightarrow","1","1","FALSE","FALSE",""
"null","<div style=""font-size:60px;""> </div>","null","html-keyboard-response","175","360713","0.0-7.0-6.18","","","fixation_4","","","","","",""
"804.7999999821186","arrows.png","39","image-keyboard-response","176","361520","0.0-7.0-7.18","","","test","rightarrow","1","1","FALSE","FALSE","true"
"null","<p style=""color: green; font-size:300%;"">correct: $7.50</p>","null","html-keyboard-response","177","362774","0.0-7.0-8.18","","","","","","","","",""
"null","<div style=""font-size:60px;""> </div>","null","html-keyboard-response","178","363328","0.0-7.0-0.19","","","fixation_1","","","","","",""
"null","","null","image-keyboard-response","179","363334","0.0-7.0-1.19","","","test","downarrow","0","1","FALSE","FALSE",""
"null","<div style=""font-size:60px;""> </div>","null","html-keyboard-response","180","363636","0.0-7.0-2.19","","","fixation_2","","","","","",""
"null","img_3.bmp","null","image-keyboard-response","181","364638","0.0-7.0-3.19","","","img_on","","","","","",""
"null","<div style=""font-size:60px;""> </div>","null","html-keyboard-response","182","364955","0.0-7.0-4.19","","","fixation_3","","","","","",""
"null","","null","html-keyboard-response","183","364960","0.0-7.0-5.19","","","test","downarrow","0","1","FALSE","FALSE",""
"null","<div style=""font-size:60px;""> </div>","null","html-keyboard-response","184","365274","0.0-7.0-6.19","","","fixation_4","","","","","",""
"1123","arrows.png","40","image-keyboard-response","185","366399","0.0-7.0-7.19","","","test","downarrow","0","1","FALSE","FALSE","true"
"null","<p style=""color: green; font-size:300%;"">correct: $2.50</p>","null","html-keyboard-response","186","367654","0.0-7.0-8.19","","","","","","","","",""
"null","<div style=""font-size:60px;""> </div>","null","html-keyboard-response","187","368708","0.0-7.0-0.20","","","fixation_1","","","","","",""
"null","","null","image-keyboard-response","188","368715","0.0-7.0-1.20","","","test","uparrow","1","1","FALSE","FALSE",""
"null","<div style=""font-size:60px;""> </div>","null","html-keyboard-response","189","369017","0.0-7.0-2.20","","","fixation_2","","","","","",""
"null","img_1.bmp","null","image-keyboard-response","190","370020","0.0-7.0-3.20","","","img_on","","","","","",""
"null","<div style=""font-size:60px;""> </div>","null","html-keyboard-response","191","370325","0.0-7.0-4.20","","","fixation_3","","","","","",""
"null","","null","html-keyboard-response","192","370330","0.0-7.0-5.20","","","test","uparrow","1","1","FALSE","FALSE",""
"null","<div style=""font-size:60px;""> </div>","null","html-keyboard-response","193","370632","0.0-7.0-6.20","","","fixation_4","","","","","",""
"1206.5999999940395","arrows.png","38","image-keyboard-response","194","371841","0.0-7.0-7.20","","","test","uparrow","1","1","FALSE","FALSE","true"
"null","<p style=""color: green; font-size:300%;"">correct: $7.50</p>","null","html-keyboard-response","195","373093","0.0-7.0-8.20","","","","","","","","",""
"null","<div style=""font-size:60px;""> </div>","null","html-keyboard-response","196","374148","0.0-7.0-0.21","","","fixation_1","","","","","",""
"null","","null","image-keyboard-response","197","374156","0.0-7.0-1.21","","","test","rightarrow","1","1","FALSE","FALSE",""
"null","<div style=""font-size:60px;""> </div>","null","html-keyboard-response","198","374458","0.0-7.0-2.21","","","fixation_2","","","","","",""
"null","img_2.bmp","null","image-keyboard-response","199","375472","0.0-7.0-3.21","","","img_on","","","","","",""
"null","<div style=""font-size:60px;""> </div>","null","html-keyboard-response","200","375774","0.0-7.0-4.21","","","fixation_3","","","","","",""
"null","","null","html-keyboard-response","201","375780","0.0-7.0-5.21","","","test","rightarrow","1","1","FALSE","FALSE",""
"null","<div style=""font-size:60px;""> </div>","null","html-keyboard-response","202","376081","0.0-7.0-6.21","","","fixation_4","","","","","",""
"724.1999999880791","arrows.png","39","image-keyboard-response","203","376807","0.0-7.0-7.21","","","test","rightarrow","1","1","FALSE","FALSE","true"
"null","<p style=""color: green; font-size:300%;"">correct: $7.50</p>","null","html-keyboard-response","204","378061","0.0-7.0-8.21","","","","","","","","",""
"null","<div style=""font-size:60px;""> </div>","null","html-keyboard-response","205","378615","0.0-7.0-0.22","","","fixation_1","","","","","",""
"null","","null","image-keyboard-response","206","378621","0.0-7.0-1.22","","","test","downarrow","0","1","FALSE","FALSE",""
"null","<div style=""font-size:60px;""> </div>","null","html-keyboard-response","207","378923","0.0-7.0-2.22","","","fixation_2","","","","","",""
"null","img_3.bmp","null","image-keyboard-response","208","379930","0.0-7.0-3.22","","","img_on","","","","","",""
"null","<div style=""font-size:60px;""> </div>","null","html-keyboard-response","209","380232","0.0-7.0-4.22","","","fixation_3","","","","","",""
"null","","null","html-keyboard-response","210","380239","0.0-7.0-5.22","","","test","downarrow","0","1","FALSE","FALSE",""
"null","<div style=""font-size:60px;""> </div>","null","html-keyboard-response","211","380541","0.0-7.0-6.22","","","fixation_4","","","","","",""
"631.1999999880791","arrows.png","40","image-keyboard-response","212","381174","0.0-7.0-7.22","","","test","downarrow","0","1","FALSE","FALSE","true"
"null","<p style=""color: green; font-size:300%;"">correct: $2.50</p>","null","html-keyboard-response","213","382428","0.0-7.0-8.22","","","","","","","","",""
"null","<div style=""font-size:60px;""> </div>","null","html-keyboard-response","214","383232","0.0-7.0-0.23","","","fixation_1","","","","","",""
"null","","null","image-keyboard-response","215","383238","0.0-7.0-1.23","","","test","leftarrow","0","1","FALSE","FALSE",""
"null","<div style=""font-size:60px;""> </div>","null","html-keyboard-response","216","383539","0.0-7.0-2.23","","","fixation_2","","","","","",""
"null","img_4.bmp","null","image-keyboard-response","217","384546","0.0-7.0-3.23","","","img_on","","","","","",""
"null","<div style=""font-size:60px;""> </div>","null","html-keyboard-response","218","384849","0.0-7.0-4.23","","","fixation_3","","","","","",""
"null","","null","html-keyboard-response","219","384856","0.0-7.0-5.23","","","test","leftarrow","0","1","FALSE","FALSE",""
"null","<div style=""font-size:60px;""> </div>","null","html-keyboard-response","220","385169","0.0-7.0-6.23","","","fixation_4","","","","","",""
"637.3999999761581","arrows.png","37","image-keyboard-response","221","385808","0.0-7.0-7.23","","","test","leftarrow","0","1","FALSE","FALSE","true"
"null","<p style=""color: green; font-size:300%;"">correct: $2.50</p>","null","html-keyboard-response","222","387072","0.0-7.0-8.23","","","","","","","","",""
"null","<div style=""font-size:60px;""> </div>","null","html-keyboard-response","223","388125","0.0-7.0-0.24","","","fixation_1","","","","","",""
"null","","null","image-keyboard-response","224","388133","0.0-7.0-1.24","","","test","rightarrow","0","2","FALSE","FALSE",""
"null","<div style=""font-size:60px;""> </div>","null","html-keyboard-response","225","388435","0.0-7.0-2.24","","","fixation_2","","","","","",""
"null","img_5.bmp","null","image-keyboard-response","226","389438","0.0-7.0-3.24","","","img_on","","","","","",""
"null","<div style=""font-size:60px;""> </div>","null","html-keyboard-response","227","389740","0.0-7.0-4.24","","","fixation_3","","","","","",""
"null","","null","html-keyboard-response","228","389746","0.0-7.0-5.24","","","test","rightarrow","0","2","FALSE","FALSE",""
"null","<div style=""font-size:60px;""> </div>","null","html-keyboard-response","229","390048","0.0-7.0-6.24","","","fixation_4","","","","","",""
"412.80000001192093","arrows.png","37","image-keyboard-response","230","390462","0.0-7.0-7.24","","","test","rightarrow","0","2","FALSE","FALSE","false"
"null","<p style=""color: red; font-size:300%;"">incorrect: $0</p>","null","html-keyboard-response","231","391715","0.0-7.0-8.24","","","","","","","","",""
"null","<div style=""font-size:60px;""> </div>","null","html-keyboard-response","232","392768","0.0-7.0-0.25","","","fixation_1","","","","","",""
"null","","null","image-keyboard-response","233","392775","0.0-7.0-1.25","","","test","downarrow","1","2","FALSE","FALSE",""
"null","<div style=""font-size:60px;""> </div>","null","html-keyboard-response","234","393081","0.0-7.0-2.25","","","fixation_2","","","","","",""
"null","img_6.bmp","null","image-keyboard-response","235","394084","0.0-7.0-3.25","","","img_on","","","","","",""
"null","<div style=""font-size:60px;""> </div>","null","html-keyboard-response","236","394386","0.0-7.0-4.25","","","fixation_3","","","","","",""
"null","","null","html-keyboard-response","237","394392","0.0-7.0-5.25","","","test","downarrow","1","2","FALSE","FALSE",""
"null","<div style=""font-size:60px;""> </div>","null","html-keyboard-response","238","394694","0.0-7.0-6.25","","","fixation_4","","","","","",""
"376.90000000596046","arrows.png","37","image-keyboard-response","239","395072","0.0-7.0-7.25","","","test","downarrow","1","2","FALSE","FALSE","false"
"null","<p style=""color: red; font-size:300%;"">incorrect: $0</p>","null","html-keyboard-response","240","396325","0.0-7.0-8.25","","","","","","","","",""
"null","<div style=""font-size:60px;""> </div>","null","html-keyboard-response","241","397877","0.0-7.0-0.26","","","fixation_1","","","","","",""
"null","","null","image-keyboard-response","242","397885","0.0-7.0-1.26","","","test","uparrow","0","2","FALSE","FALSE",""
"null","<div style=""font-size:60px;""> </div>","null","html-keyboard-response","243","398187","0.0-7.0-2.26","","","fixation_2","","","","","",""
"null","img_8.bmp","null","image-keyboard-response","244","399190","0.0-7.0-3.26","","","img_on","","","","","",""
"null","<div style=""font-size:60px;""> </div>","null","html-keyboard-response","245","399492","0.0-7.0-4.26","","","fixation_3","","","","","",""
"null","","null","html-keyboard-response","246","399499","0.0-7.0-5.26","","","test","uparrow","0","2","FALSE","FALSE",""
"null","<div style=""font-size:60px;""> </div>","null","html-keyboard-response","247","399801","0.0-7.0-6.26","","","fixation_4","","","","","",""
"461.5","arrows.png","37","image-keyboard-response","248","400264","0.0-7.0-7.26","","","test","uparrow","0","2","FALSE","FALSE","false"
"null","<p style=""color: red; font-size:300%;"">incorrect: $0</p>","null","html-keyboard-response","249","401516","0.0-7.0-8.26","","","","","","","","",""
"null","<div style=""font-size:60px;""> </div>","null","html-keyboard-response","250","402070","0.0-7.0-0.27","","","fixation_1","","","","","",""
"null","","null","image-keyboard-response","251","402077","0.0-7.0-1.27","","","test","leftarrow","1","2","FALSE","FALSE",""
"null","<div style=""font-size:60px;""> </div>","null","html-keyboard-response","252","402379","0.0-7.0-2.27","","","fixation_2","","","","","",""
"null","img_7.bmp","null","image-keyboard-response","253","403382","0.0-7.0-3.27","","","img_on","","","","","",""
"null","<div style=""font-size:60px;""> </div>","null","html-keyboard-response","254","403684","0.0-7.0-4.27","","","fixation_3","","","","","",""
"null","","null","html-keyboard-response","255","403690","0.0-7.0-5.27","","","test","leftarrow","1","2","FALSE","FALSE",""
"null","<div style=""font-size:60px;""> </div>","null","html-keyboard-response","256","403992","0.0-7.0-6.27","","","fixation_4","","","","","",""
"336.90000000596046","arrows.png","37","image-keyboard-response","257","404330","0.0-7.0-7.27","","","test","leftarrow","1","2","FALSE","FALSE","true"
"null","<p style=""color: green; font-size:300%;"">correct: $7.50</p>","null","html-keyboard-response","258","405582","0.0-7.0-8.27","","","","","","","","",""
"null","<div style=""font-size:60px;""> </div>","null","html-keyboard-response","259","406136","0.0-7.0-0.28","","","fixation_1","","","","","",""
"null","","null","image-keyboard-response","260","406142","0.0-7.0-1.28","","","test","downarrow","1","2","FALSE","FALSE",""
"null","<div style=""font-size:60px;""> </div>","null","html-keyboard-response","261","406444","0.0-7.0-2.28","","","fixation_2","","","","","",""
"null","img_6.bmp","null","image-keyboard-response","262","407447","0.0-7.0-3.28","","","img_on","","","","","",""
"null","<div style=""font-size:60px;""> </div>","null","html-keyboard-response","263","407750","0.0-7.0-4.28","","","fixation_3","","","","","",""
"null","","null","html-keyboard-response","264","407756","0.0-7.0-5.28","","","test","downarrow","1","2","FALSE","FALSE",""
"null","<div style=""font-size:60px;""> </div>","null","html-keyboard-response","265","408058","0.0-7.0-6.28","","","fixation_4","","","","","",""
"327.90000000596046","arrows.png","40","image-keyboard-response","266","408387","0.0-7.0-7.28","","","test","downarrow","1","2","FALSE","FALSE","true"
"null","<p style=""color: green; font-size:300%;"">correct: $7.50</p>","null","html-keyboard-response","267","409642","0.0-7.0-8.28","","","","","","","","",""
"null","<div style=""font-size:60px;""> </div>","null","html-keyboard-response","268","410696","0.0-7.0-0.29","","","fixation_1","","","","","",""
"null","","null","image-keyboard-response","269","410703","0.0-7.0-1.29","","","test","leftarrow","1","2","FALSE","FALSE",""
"null","<div style=""font-size:60px;""> </div>","null","html-keyboard-response","270","411005","0.0-7.0-2.29","","","fixation_2","","","","","",""
"null","img_7.bmp","null","image-keyboard-response","271","412008","0.0-7.0-3.29","","","img_on","","","","","",""
"null","<div style=""font-size:60px;""> </div>","null","html-keyboard-response","272","412310","0.0-7.0-4.29","","","fixation_3","","","","","",""
"null","","null","html-keyboard-response","273","412317","0.0-7.0-5.29","","","test","leftarrow","1","2","FALSE","FALSE",""
"null","<div style=""font-size:60px;""> </div>","null","html-keyboard-response","274","412621","0.0-7.0-6.29","","","fixation_4","","","","","",""
"333.69999998807907","arrows.png","37","image-keyboard-response","275","412956","0.0-7.0-7.29","","","test","leftarrow","1","2","FALSE","FALSE","true"
"null","<p style=""color: green; font-size:300%;"">correct: $7.50</p>","null","html-keyboard-response","276","414209","0.0-7.0-8.29","","","","","","","","",""
"null","<div style=""font-size:60px;""> </div>","null","html-keyboard-response","277","415268","0.0-7.0-0.30","","","fixation_1","","","","","",""
"null","","null","image-keyboard-response","278","415275","0.0-7.0-1.30","","","test","rightarrow","0","2","FALSE","FALSE",""
"null","<div style=""font-size:60px;""> </div>","null","html-keyboard-response","279","415577","0.0-7.0-2.30","","","fixation_2","","","","","",""
"null","img_5.bmp","null","image-keyboard-response","280","416580","0.0-7.0-3.30","","","img_on","","","","","",""
"null","<div style=""font-size:60px;""> </div>","null","html-keyboard-response","281","416885","0.0-7.0-4.30","","","fixation_3","","","","","",""
"null","","null","html-keyboard-response","282","416892","0.0-7.0-5.30","","","test","rightarrow","0","2","FALSE","FALSE",""
"null","<div style=""font-size:60px;""> </div>","null","html-keyboard-response","283","417194","0.0-7.0-6.30","","","fixation_4","","","","","",""
"344.59999999403954","arrows.png","38","image-keyboard-response","284","417540","0.0-7.0-7.30","","","test","rightarrow","0","2","FALSE","FALSE","false"
"null","<p style=""color: red; font-size:300%;"">incorrect: $0</p>","null","html-keyboard-response","285","418792","0.0-7.0-8.30","","","","","","","","",""
"null","<div style=""font-size:60px;""> </div>","null","html-keyboard-response","286","419596","0.0-7.0-0.31","","","fixation_1","","","","","",""
"null","","null","image-keyboard-response","287","419603","0.0-7.0-1.31","","","test","uparrow","0","2","FALSE","FALSE",""
"null","<div style=""font-size:60px;""> </div>","null","html-keyboard-response","288","419905","0.0-7.0-2.31","","","fixation_2","","","","","",""
"null","img_8.bmp","null","image-keyboard-response","289","420908","0.0-7.0-3.31","","","img_on","","","","","",""
"null","<div style=""font-size:60px;""> </div>","null","html-keyboard-response","290","421210","0.0-7.0-4.31","","","fixation_3","","","","","",""
"null","","null","html-keyboard-response","291","421217","0.0-7.0-5.31","","","test","uparrow","0","2","FALSE","FALSE",""
"null","<div style=""font-size:60px;""> </div>","null","html-keyboard-response","292","421519","0.0-7.0-6.31","","","fixation_4","","","","","",""
"767.7999999821186","arrows.png","38","image-keyboard-response","293","422288","0.0-7.0-7.31","","","test","uparrow","0","2","FALSE","FALSE","true"
"null","<p style=""color: green; font-size:300%;"">correct: $2.50</p>","null","html-keyboard-response","294","423542","0.0-7.0-8.31","","","","","","","","",""
"null","<div style=""font-size:60px;""> </div>","null","html-keyboard-response","295","424846","0.0-7.0-0.32","","","fixation_1","","","","","",""
"null","","null","image-keyboard-response","296","424852","0.0-7.0-1.32","","","test","rightarrow","0","2","FALSE","FALSE",""
"null","<div style=""font-size:60px;""> </div>","null","html-keyboard-response","297","425154","0.0-7.0-2.32","","","fixation_2","","","","","",""
"null","img_5.bmp","null","image-keyboard-response","298","426157","0.0-7.0-3.32","","","img_on","","","","","",""
"null","<div style=""font-size:60px;""> </div>","null","html-keyboard-response","299","426460","0.0-7.0-4.32","","","fixation_3","","","","","",""
"null","","null","html-keyboard-response","300","426465","0.0-7.0-5.32","","","test","rightarrow","0","2","FALSE","FALSE",""
"null","<div style=""font-size:60px;""> </div>","null","html-keyboard-response","301","426767","0.0-7.0-6.32","","","fixation_4","","","","","",""
"551.5999999940395","arrows.png","39","image-keyboard-response","302","427321","0.0-7.0-7.32","","","test","rightarrow","0","2","FALSE","FALSE","true"
"null","<p style=""color: green; font-size:300%;"">correct: $2.50</p>","null","html-keyboard-response","303","428573","0.0-7.0-8.32","","","","","","","","",""
"null","<div style=""font-size:60px;""> </div>","null","html-keyboard-response","304","429381","0.0-7.0-0.33","","","fixation_1","","","","","",""
"null","","null","image-keyboard-response","305","429388","0.0-7.0-1.33","","","test","leftarrow","1","2","FALSE","FALSE",""
"null","<div style=""font-size:60px;""> </div>","null","html-keyboard-response","306","429689","0.0-7.0-2.33","","","fixation_2","","","","","",""
"null","img_7.bmp","null","image-keyboard-response","307","430692","0.0-7.0-3.33","","","img_on","","","","","",""
"null","<div style=""font-size:60px;""> </div>","null","html-keyboard-response","308","430995","0.0-7.0-4.33","","","fixation_3","","","","","",""
"null","","null","html-keyboard-response","309","431001","0.0-7.0-5.33","","","test","leftarrow","1","2","FALSE","FALSE",""
"null","<div style=""font-size:60px;""> </div>","null","html-keyboard-response","310","431302","0.0-7.0-6.33","","","fixation_4","","","","","",""
"298.09999999403954","arrows.png","37","image-keyboard-response","311","431601","0.0-7.0-7.33","","","test","leftarrow","1","2","FALSE","FALSE","true"
"null","<p style=""color: green; font-size:300%;"">correct: $7.50</p>","null","html-keyboard-response","312","432854","0.0-7.0-8.33","","","","","","","","",""
"null","<div style=""font-size:60px;""> </div>","null","html-keyboard-response","313","433658","0.0-7.0-0.34","","","fixation_1","","","","","",""
"null","","null","image-keyboard-response","314","433665","0.0-7.0-1.34","","","test","downarrow","1","2","FALSE","FALSE",""
"null","<div style=""font-size:60px;""> </div>","null","html-keyboard-response","315","433967","0.0-7.0-2.34","","","fixation_2","","","","","",""
"null","img_6.bmp","null","image-keyboard-response","316","434970","0.0-7.0-3.34","","","img_on","","","","","",""
"null","<div style=""font-size:60px;""> </div>","null","html-keyboard-response","317","435287","0.0-7.0-4.34","","","fixation_3","","","","","",""
"null","","null","html-keyboard-response","318","435293","0.0-7.0-5.34","","","test","downarrow","1","2","FALSE","FALSE",""
"null","<div style=""font-size:60px;""> </div>","null","html-keyboard-response","319","435595","0.0-7.0-6.34","","","fixation_4","","","","","",""
"402.19999998807907","arrows.png","40","image-keyboard-response","320","435998","0.0-7.0-7.34","","","test","downarrow","1","2","FALSE","FALSE","true"
"null","<p style=""color: green; font-size:300%;"">correct: $7.50</p>","null","html-keyboard-response","321","437251","0.0-7.0-8.34","","","","","","","","",""
"null","<div style=""font-size:60px;""> </div>","null","html-keyboard-response","322","438805","0.0-7.0-0.35","","","fixation_1","","","","","",""
"null","","null","image-keyboard-response","323","438812","0.0-7.0-1.35","","","test","uparrow","0","2","FALSE","FALSE",""
"null","<div style=""font-size:60px;""> </div>","null","html-keyboard-response","324","439114","0.0-7.0-2.35","","","fixation_2","","","","","",""
"null","img_8.bmp","null","image-keyboard-response","325","440117","0.0-7.0-3.35","","","img_on","","","","","",""
"null","<div style=""font-size:60px;""> </div>","null","html-keyboard-response","326","440419","0.0-7.0-4.35","","","fixation_3","","","","","",""
"null","","null","html-keyboard-response","327","440426","0.0-7.0-5.35","","","test","uparrow","0","2","FALSE","FALSE",""
"null","<div style=""font-size:60px;""> </div>","null","html-keyboard-response","328","440728","0.0-7.0-6.35","","","fixation_4","","","","","",""
"282.5","arrows.png","38","image-keyboard-response","329","441012","0.0-7.0-7.35","","","test","uparrow","0","2","FALSE","FALSE","true"
"null","<p style=""color: green; font-size:300%;"">correct: $2.50</p>","null","html-keyboard-response","330","442265","0.0-7.0-8.35","","","","","","","","",""
"null","<div style=""font-size:60px;""> </div>","null","html-keyboard-response","331","443318","0.0-7.0-0.36","","","fixation_1","","","","","",""
"null","","null","image-keyboard-response","332","443325","0.0-7.0-1.36","","","test","uparrow","0","2","FALSE","FALSE",""
"null","<div style=""font-size:60px;""> </div>","null","html-keyboard-response","333","443627","0.0-7.0-2.36","","","fixation_2","","","","","",""
"null","img_8.bmp","null","image-keyboard-response","334","444630","0.0-7.0-3.36","","","img_on","","","","","",""
"null","<div style=""font-size:60px;""> </div>","null","html-keyboard-response","335","444932","0.0-7.0-4.36","","","fixation_3","","","","","",""
"null","","null","html-keyboard-response","336","444939","0.0-7.0-5.36","","","test","uparrow","0","2","FALSE","FALSE",""
"null","<div style=""font-size:60px;""> </div>","null","html-keyboard-response","337","445240","0.0-7.0-6.36","","","fixation_4","","","","","",""
"427.09999999403954","arrows.png","38","image-keyboard-response","338","445668","0.0-7.0-7.36","","","test","uparrow","0","2","FALSE","FALSE","true"
"null","<p style=""color: green; font-size:300%;"">correct: $2.50</p>","null","html-keyboard-response","339","446922","0.0-7.0-8.36","","","","","","","","",""
"null","<div style=""font-size:60px;""> </div>","null","html-keyboard-response","340","447725","0.0-7.0-0.37","","","fixation_1","","","","","",""
"null","","null","image-keyboard-response","341","447732","0.0-7.0-1.37","","","test","leftarrow","1","2","FALSE","FALSE",""
"null","<div style=""font-size:60px;""> </div>","null","html-keyboard-response","342","448034","0.0-7.0-2.37","","","fixation_2","","","","","",""
"null","img_7.bmp","null","image-keyboard-response","343","449037","0.0-7.0-3.37","","","img_on","","","","","",""
"null","<div style=""font-size:60px;""> </div>","null","html-keyboard-response","344","449339","0.0-7.0-4.37","","","fixation_3","","","","","",""
"null","","null","html-keyboard-response","345","449345","0.0-7.0-5.37","","","test","leftarrow","1","2","FALSE","FALSE",""
"null","<div style=""font-size:60px;""> </div>","null","html-keyboard-response","346","449648","0.0-7.0-6.37","","","fixation_4","","","","","",""
"577.8999999761581","arrows.png","37","image-keyboard-response","347","450227","0.0-7.0-7.37","","","test","leftarrow","1","2","FALSE","FALSE","true"
"null","<p style=""color: green; font-size:300%;"">correct: $7.50</p>","null","html-keyboard-response","348","451480","0.0-7.0-8.37","","","","","","","","",""
"null","<div style=""font-size:60px;""> </div>","null","html-keyboard-response","349","452534","0.0-7.0-0.38","","","fixation_1","","","","","",""
"null","","null","image-keyboard-response","350","452541","0.0-7.0-1.38","","","test","rightarrow","0","2","FALSE","FALSE",""
"null","<div style=""font-size:60px;""> </div>","null","html-keyboard-response","351","452852","0.0-7.0-2.38","","","fixation_2","","","","","",""
"null","img_5.bmp","null","image-keyboard-response","352","453856","0.0-7.0-3.38","","","img_on","","","","","",""
"null","<div style=""font-size:60px;""> </div>","null","html-keyboard-response","353","454158","0.0-7.0-4.38","","","fixation_3","","","","","",""
"null","","null","html-keyboard-response","354","454164","0.0-7.0-5.38","","","test","rightarrow","0","2","FALSE","FALSE",""
"null","<div style=""font-size:60px;""> </div>","null","html-keyboard-response","355","454466","0.0-7.0-6.38","","","fixation_4","","","","","",""
"694.3000000119209","arrows.png","39","image-keyboard-response","356","455162","0.0-7.0-7.38","","","test","rightarrow","0","2","FALSE","FALSE","true"
"null","<p style=""color: green; font-size:300%;"">correct: $2.50</p>","null","html-keyboard-response","357","456415","0.0-7.0-8.38","","","","","","","","",""
"null","<div style=""font-size:60px;""> </div>","null","html-keyboard-response","358","457219","0.0-7.0-0.39","","","fixation_1","","","","","",""
"null","","null","image-keyboard-response","359","457226","0.0-7.0-1.39","","","test","downarrow","1","2","FALSE","FALSE",""
"null","<div style=""font-size:60px;""> </div>","null","html-keyboard-response","360","457528","0.0-7.0-2.39","","","fixation_2","","","","","",""
"null","img_6.bmp","null","image-keyboard-response","361","458537","0.0-7.0-3.39","","","img_on","","","","","",""
"null","<div style=""font-size:60px;""> </div>","null","html-keyboard-response","362","458839","0.0-7.0-4.39","","","fixation_3","","","","","",""
"null","","null","html-keyboard-response","363","458846","0.0-7.0-5.39","","","test","downarrow","1","2","FALSE","FALSE",""
"null","<div style=""font-size:60px;""> </div>","null","html-keyboard-response","364","459148","0.0-7.0-6.39","","","fixation_4","","","","","",""
"289.7999999821186","arrows.png","40","image-keyboard-response","365","459440","0.0-7.0-7.39","","","test","downarrow","1","2","FALSE","FALSE","true"
"null","<p style=""color: green; font-size:300%;"">correct: $7.50</p>","null","html-keyboard-response","366","460694","0.0-7.0-8.39","","","","","","","","",""
"null","<div style=""font-size:60px;""> </div>","null","html-keyboard-response","367","462248","0.0-7.0-0.40","","","fixation_1","","","","","",""
"null","","null","image-keyboard-response","368","462256","0.0-7.0-1.40","","","test","downarrow","1","2","FALSE","FALSE",""
"null","<div style=""font-size:60px;""> </div>","null","html-keyboard-response","369","462558","0.0-7.0-2.40","","","fixation_2","","","","","",""
"null","img_6.bmp","null","image-keyboard-response","370","463560","0.0-7.0-3.40","","","img_on","","","","","",""
"null","<div style=""font-size:60px;""> </div>","null","html-keyboard-response","371","463863","0.0-7.0-4.40","","","fixation_3","","","","","",""
"null","","null","html-keyboard-response","372","463869","0.0-7.0-5.40","","","test","downarrow","1","2","FALSE","FALSE",""
"null","<div style=""font-size:60px;""> </div>","null","html-keyboard-response","373","464172","0.0-7.0-6.40","","","fixation_4","","","","","",""
"299.40000000596046","arrows.png","40","image-keyboard-response","374","464473","0.0-7.0-7.40","","","test","downarrow","1","2","FALSE","FALSE","true"
"null","<p style=""color: green; font-size:300%;"">correct: $7.50</p>","null","html-keyboard-response","375","465732","0.0-7.0-8.40","","","","","","","","",""
"null","<div style=""font-size:60px;""> </div>","null","html-keyboard-response","376","467284","0.0-7.0-0.41","","","fixation_1","","","","","",""
"null","","null","image-keyboard-response","377","467290","0.0-7.0-1.41","","","test","leftarrow","1","2","FALSE","FALSE",""
"null","<div style=""font-size:60px;""> </div>","null","html-keyboard-response","378","467591","0.0-7.0-2.41","","","fixation_2","","","","","",""
"null","img_7.bmp","null","image-keyboard-response","379","468594","0.0-7.0-3.41","","","img_on","","","","","",""
"null","<div style=""font-size:60px;""> </div>","null","html-keyboard-response","380","468896","0.0-7.0-4.41","","","fixation_3","","","","","",""
"null","","null","html-keyboard-response","381","468902","0.0-7.0-5.41","","","test","leftarrow","1","2","FALSE","FALSE",""
"null","<div style=""font-size:60px;""> </div>","null","html-keyboard-response","382","469204","0.0-7.0-6.41","","","fixation_4","","","","","",""
"313.90000000596046","arrows.png","37","image-keyboard-response","383","469519","0.0-7.0-7.41","","","test","leftarrow","1","2","FALSE","FALSE","true"
"null","<p style=""color: green; font-size:300%;"">correct: $7.50</p>","null","html-keyboard-response","384","470771","0.0-7.0-8.41","","","","","","","","",""
"null","<div style=""font-size:60px;""> </div>","null","html-keyboard-response","385","471326","0.0-7.0-0.42","","","fixation_1","","","","","",""
"null","","null","image-keyboard-response","386","471333","0.0-7.0-1.42","","","test","rightarrow","0","2","FALSE","FALSE",""
"null","<div style=""font-size:60px;""> </div>","null","html-keyboard-response","387","471635","0.0-7.0-2.42","","","fixation_2","","","","","",""
"null","img_5.bmp","null","image-keyboard-response","388","472638","0.0-7.0-3.42","","","img_on","","","","","",""
"null","<div style=""font-size:60px;""> </div>","null","html-keyboard-response","389","472940","0.0-7.0-4.42","","","fixation_3","","","","","",""
"null","","null","html-keyboard-response","390","472946","0.0-7.0-5.42","","","test","rightarrow","0","2","FALSE","FALSE",""
"null","<div style=""font-size:60px;""> </div>","null","html-keyboard-response","391","473248","0.0-7.0-6.42","","","fixation_4","","","","","",""
"308.09999999403954","arrows.png","39","image-keyboard-response","392","473558","0.0-7.0-7.42","","","test","rightarrow","0","2","FALSE","FALSE","true"
"null","<p style=""color: green; font-size:300%;"">correct: $2.50</p>","null","html-keyboard-response","393","474811","0.0-7.0-8.42","","","","","","","","",""
"null","<div style=""font-size:60px;""> </div>","null","html-keyboard-response","394","475615","0.0-7.0-0.43","","","fixation_1","","","","","",""
"null","","null","image-keyboard-response","395","475622","0.0-7.0-1.43","","","test","uparrow","0","2","FALSE","FALSE",""
"null","<div style=""font-size:60px;""> </div>","null","html-keyboard-response","396","475927","0.0-7.0-2.43","","","fixation_2","","","","","",""
"null","img_8.bmp","null","image-keyboard-response","397","476930","0.0-7.0-3.43","","","img_on","","","","","",""
"null","<div style=""font-size:60px;""> </div>","null","html-keyboard-response","398","477233","0.0-7.0-4.43","","","fixation_3","","","","","",""
"null","","null","html-keyboard-response","399","477239","0.0-7.0-5.43","","","test","uparrow","0","2","FALSE","FALSE",""
"null","<div style=""font-size:60px;""> </div>","null","html-keyboard-response","400","477541","0.0-7.0-6.43","","","fixation_4","","","","","",""
"356","arrows.png","38","image-keyboard-response","401","477898","0.0-7.0-7.43","","","test","uparrow","0","2","FALSE","FALSE","true"
"null","<p style=""color: green; font-size:300%;"">correct: $2.50</p>","null","html-keyboard-response","402","479161","0.0-7.0-8.43","","","","","","","","",""
"null","<div style=""font-size:60px;""> </div>","null","html-keyboard-response","403","480464","0.0-7.0-0.44","","","fixation_1","","","","","",""
"null","","null","image-keyboard-response","404","480471","0.0-7.0-1.44","","","test","downarrow","1","2","FALSE","FALSE",""
"null","<div style=""font-size:60px;""> </div>","null","html-keyboard-response","405","480774","0.0-7.0-2.44","","","fixation_2","","","","","",""
"null","img_6.bmp","null","image-keyboard-response","406","481776","0.0-7.0-3.44","","","img_on","","","","","",""
"null","<div style=""font-size:60px;""> </div>","null","html-keyboard-response","407","482080","0.0-7.0-4.44","","","fixation_3","","","","","",""
"null","","null","html-keyboard-response","408","482087","0.0-7.0-5.44","","","test","downarrow","1","2","FALSE","FALSE",""
"null","<div style=""font-size:60px;""> </div>","null","html-keyboard-response","409","482389","0.0-7.0-6.44","","","fixation_4","","","","","",""
"285.30000001192093","arrows.png","40","image-keyboard-response","410","482676","0.0-7.0-7.44","","","test","downarrow","1","2","FALSE","FALSE","true"
"null","<p style=""color: green; font-size:300%;"">correct: $7.50</p>","null","html-keyboard-response","411","483929","0.0-7.0-8.44","","","","","","","","",""
"null","<div style=""font-size:60px;""> </div>","null","html-keyboard-response","412","484981","0.0-7.0-0.45","","","fixation_1","","","","","",""
"null","","null","image-keyboard-response","413","484988","0.0-7.0-1.45","","","test","uparrow","0","2","FALSE","FALSE",""
"null","<div style=""font-size:60px;""> </div>","null","html-keyboard-response","414","485289","0.0-7.0-2.45","","","fixation_2","","","","","",""
"null","img_8.bmp","null","image-keyboard-response","415","486294","0.0-7.0-3.45","","","img_on","","","","","",""
"null","<div style=""font-size:60px;""> </div>","null","html-keyboard-response","416","486597","0.0-7.0-4.45","","","fixation_3","","","","","",""
"null","","null","html-keyboard-response","417","486604","0.0-7.0-5.45","","","test","uparrow","0","2","FALSE","FALSE",""
"null","<div style=""font-size:60px;""> </div>","null","html-keyboard-response","418","486907","0.0-7.0-6.45","","","fixation_4","","","","","",""
"354.59999999403954","arrows.png","38","image-keyboard-response","419","487263","0.0-7.0-7.45","","","test","uparrow","0","2","FALSE","FALSE","true"
"null","<p style=""color: green; font-size:300%;"">correct: $2.50</p>","null","html-keyboard-response","420","488516","0.0-7.0-8.45","","","","","","","","",""
"null","<div style=""font-size:60px;""> </div>","null","html-keyboard-response","421","489821","0.0-7.0-0.46","","","fixation_1","","","","","",""
"null","","null","image-keyboard-response","422","489829","0.0-7.0-1.46","","","test","leftarrow","1","2","FALSE","FALSE",""
"null","<div style=""font-size:60px;""> </div>","null","html-keyboard-response","423","490135","0.0-7.0-2.46","","","fixation_2","","","","","",""
"null","img_7.bmp","null","image-keyboard-response","424","491139","0.0-7.0-3.46","","","img_on","","","","","",""
"null","<div style=""font-size:60px;""> </div>","null","html-keyboard-response","425","491447","0.0-7.0-4.46","","","fixation_3","","","","","",""
"null","","null","html-keyboard-response","426","491453","0.0-7.0-5.46","","","test","leftarrow","1","2","FALSE","FALSE",""
"null","<div style=""font-size:60px;""> </div>","null","html-keyboard-response","427","491755","0.0-7.0-6.46","","","fixation_4","","","","","",""
"260.40000000596046","arrows.png","37","image-keyboard-response","428","492017","0.0-7.0-7.46","","","test","leftarrow","1","2","FALSE","FALSE","true"
"null","<p style=""color: green; font-size:300%;"">correct: $7.50</p>","null","html-keyboard-response","429","493271","0.0-7.0-8.46","","","","","","","","",""
"null","<div style=""font-size:60px;""> </div>","null","html-keyboard-response","430","494575","0.0-7.0-0.47","","","fixation_1","","","","","",""
"null","","null","image-keyboard-response","431","494581","0.0-7.0-1.47","","","test","rightarrow","0","2","FALSE","FALSE",""
"null","<div style=""font-size:60px;""> </div>","null","html-keyboard-response","432","494895","0.0-7.0-2.47","","","fixation_2","","","","","",""
"null","img_5.bmp","null","image-keyboard-response","433","495898","0.0-7.0-3.47","","","img_on","","","","","",""
"null","<div style=""font-size:60px;""> </div>","null","html-keyboard-response","434","496201","0.0-7.0-4.47","","","fixation_3","","","","","",""
"null","","null","html-keyboard-response","435","496208","0.0-7.0-5.47","","","test","rightarrow","0","2","FALSE","FALSE",""
"null","<div style=""font-size:60px;""> </div>","null","html-keyboard-response","436","496525","0.0-7.0-6.47","","","fixation_4","","","","","",""
"197.5","arrows.png","39","image-keyboard-response","437","496724","0.0-7.0-7.47","","","test","rightarrow","0","2","FALSE","FALSE","true"
"null","<p style=""color: green; font-size:300%;"">correct: $2.50</p>","null","html-keyboard-response","438","497977","0.0-7.0-8.47","","","","","","","","",""
"null","<div style=""font-size:60px;""> </div>","null","html-keyboard-response","439","498781","0.0-7.0-0.48","","","fixation_1","","","","","",""
"null","","null","image-keyboard-response","440","498787","0.0-7.0-1.48","","","test","leftarrow","0","1","FALSE","FALSE",""
"null","<div style=""font-size:60px;""> </div>","null","html-keyboard-response","441","499089","0.0-7.0-2.48","","","fixation_2","","","","","",""
"null","img_4.bmp","null","image-keyboard-response","442","500092","0.0-7.0-3.48","","","img_on","","","","","",""
"null","<div style=""font-size:60px;""> </div>","null","html-keyboard-response","443","500395","0.0-7.0-4.48","","","fixation_3","","","","","",""
"null","","null","html-keyboard-response","444","500401","0.0-7.0-5.48","","","test","leftarrow","0","1","FALSE","FALSE",""
"null","<div style=""font-size:60px;""> </div>","null","html-keyboard-response","445","500703","0.0-7.0-6.48","","","fixation_4","","","","","",""
"337.40000000596046","arrows.png","37","image-keyboard-response","446","501042","0.0-7.0-7.48","","","test","leftarrow","0","1","FALSE","FALSE","true"
"null","<p style=""color: green; font-size:300%;"">correct: $2.50</p>","null","html-keyboard-response","447","502294","0.0-7.0-8.48","","","","","","","","",""
"null","<div style=""font-size:60px;""> </div>","null","html-keyboard-response","448","503598","0.0-7.0-0.49","","","fixation_1","","","","","",""
"null","","null","image-keyboard-response","449","503605","0.0-7.0-1.49","","","test","rightarrow","1","1","FALSE","FALSE",""
"null","<div style=""font-size:60px;""> </div>","null","html-keyboard-response","450","503907","0.0-7.0-2.49","","","fixation_2","","","","","",""
"null","img_2.bmp","null","image-keyboard-response","451","504910","0.0-7.0-3.49","","","img_on","","","","","",""
"null","<div style=""font-size:60px;""> </div>","null","html-keyboard-response","452","505213","0.0-7.0-4.49","","","fixation_3","","","","","",""
"null","","null","html-keyboard-response","453","505220","0.0-7.0-5.49","","","test","rightarrow","1","1","FALSE","FALSE",""
"null","<div style=""font-size:60px;""> </div>","null","html-keyboard-response","454","505524","0.0-7.0-6.49","","","fixation_4","","","","","",""
"345.90000000596046","arrows.png","39","image-keyboard-response","455","505871","0.0-7.0-7.49","","","test","rightarrow","1","1","FALSE","FALSE","true"
"null","<p style=""color: green; font-size:300%;"">correct: $7.50</p>","null","html-keyboard-response","456","507125","0.0-7.0-8.49","","","","","","","","",""
"null","<div style=""font-size:60px;""> </div>","null","html-keyboard-response","457","507929","0.0-7.0-0.50","","","fixation_1","","","","","",""
"null","","null","image-keyboard-response","458","507936","0.0-7.0-1.50","","","test","uparrow","1","1","FALSE","FALSE",""
"null","<div style=""font-size:60px;""> </div>","null","html-keyboard-response","459","508238","0.0-7.0-2.50","","","fixation_2","","","","","",""
"null","img_1.bmp","null","image-keyboard-response","460","509241","0.0-7.0-3.50","","","img_on","","","","","",""
"null","<div style=""font-size:60px;""> </div>","null","html-keyboard-response","461","509543","0.0-7.0-4.50","","","fixation_3","","","","","",""
"null","","null","html-keyboard-response","462","509549","0.0-7.0-5.50","","","test","uparrow","1","1","FALSE","FALSE",""
"null","<div style=""font-size:60px;""> </div>","null","html-keyboard-response","463","509851","0.0-7.0-6.50","","","fixation_4","","","","","",""
"509.40000000596046","arrows.png","38","image-keyboard-response","464","510362","0.0-7.0-7.50","","","test","uparrow","1","1","FALSE","FALSE","true"
"null","<p style=""color: green; font-size:300%;"">correct: $7.50</p>","null","html-keyboard-response","465","511614","0.0-7.0-8.50","","","","","","","","",""
"null","<div style=""font-size:60px;""> </div>","null","html-keyboard-response","466","512168","0.0-7.0-0.51","","","fixation_1","","","","","",""
"null","","null","image-keyboard-response","467","512174","0.0-7.0-1.51","","","test","downarrow","0","1","FALSE","FALSE",""
"null","<div style=""font-size:60px;""> </div>","null","html-keyboard-response","468","512475","0.0-7.0-2.51","","","fixation_2","","","","","",""
"null","img_3.bmp","null","image-keyboard-response","469","513478","0.0-7.0-3.51","","","img_on","","","","","",""
"null","<div style=""font-size:60px;""> </div>","null","html-keyboard-response","470","513780","0.0-7.0-4.51","","","fixation_3","","","","","",""
"null","","null","html-keyboard-response","471","513787","0.0-7.0-5.51","","","test","downarrow","0","1","FALSE","FALSE",""
"null","<div style=""font-size:60px;""> </div>","null","html-keyboard-response","472","514088","0.0-7.0-6.51","","","fixation_4","","","","","",""
"298.89999997615814","arrows.png","40","image-keyboard-response","473","514389","0.0-7.0-7.51","","","test","downarrow","0","1","FALSE","FALSE","true"
"null","<p style=""color: green; font-size:300%;"">correct: $2.50</p>","null","html-keyboard-response","474","515642","0.0-7.0-8.51","","","","","","","","",""
"null","<div style=""font-size:60px;""> </div>","null","html-keyboard-response","475","516195","0.0-7.0-0.52","","","fixation_1","","","","","",""
"null","","null","image-keyboard-response","476","516203","0.0-7.0-1.52","","","test","leftarrow","0","1","FALSE","FALSE",""
"null","<div style=""font-size:60px;""> </div>","null","html-keyboard-response","477","516506","0.0-7.0-2.52","","","fixation_2","","","","","",""
"null","img_4.bmp","null","image-keyboard-response","478","517509","0.0-7.0-3.52","","","img_on","","","","","",""
"null","<div style=""font-size:60px;""> </div>","null","html-keyboard-response","479","517811","0.0-7.0-4.52","","","fixation_3","","","","","",""
"null","","null","html-keyboard-response","480","517818","0.0-7.0-5.52","","","test","leftarrow","0","1","FALSE","FALSE",""
"null","<div style=""font-size:60px;""> </div>","null","html-keyboard-response","481","518120","0.0-7.0-6.52","","","fixation_4","","","","","",""
"481.59999999403954","arrows.png","37","image-keyboard-response","482","518602","0.0-7.0-7.52","","","test","leftarrow","0","1","FALSE","FALSE","true"
"null","<p style=""color: green; font-size:300%;"">correct: $2.50</p>","null","html-keyboard-response","483","519856","0.0-7.0-8.52","","","","","","","","",""
"null","<div style=""font-size:60px;""> </div>","null","html-keyboard-response","484","520660","0.0-7.0-0.53","","","fixation_1","","","","","",""
"null","","null","image-keyboard-response","485","520667","0.0-7.0-1.53","","","test","downarrow","0","1","FALSE","FALSE",""
"null","<div style=""font-size:60px;""> </div>","null","html-keyboard-response","486","520974","0.0-7.0-2.53","","","fixation_2","","","","","",""
"null","img_3.bmp","null","image-keyboard-response","487","521977","0.0-7.0-3.53","","","img_on","","","","","",""
"null","<div style=""font-size:60px;""> </div>","null","html-keyboard-response","488","522279","0.0-7.0-4.53","","","fixation_3","","","","","",""
"null","","null","html-keyboard-response","489","522285","0.0-7.0-5.53","","","test","downarrow","0","1","FALSE","FALSE",""
"null","<div style=""font-size:60px;""> </div>","null","html-keyboard-response","490","522586","0.0-7.0-6.53","","","fixation_4","","","","","",""
"273.7000000178814","arrows.png","40","image-keyboard-response","491","522861","0.0-7.0-7.53","","","test","downarrow","0","1","FALSE","FALSE","true"
"null","<p style=""color: green; font-size:300%;"">correct: $2.50</p>","null","html-keyboard-response","492","524114","0.0-7.0-8.53","","","","","","","","",""
"null","<div style=""font-size:60px;""> </div>","null","html-keyboard-response","493","525668","0.0-7.0-0.54","","","fixation_1","","","","","",""
"null","","null","image-keyboard-response","494","525676","0.0-7.0-1.54","","","test","uparrow","1","1","FALSE","FALSE",""
"null","<div style=""font-size:60px;""> </div>","null","html-keyboard-response","495","525978","0.0-7.0-2.54","","","fixation_2","","","","","",""
"null","img_1.bmp","null","image-keyboard-response","496","526981","0.0-7.0-3.54","","","img_on","","","","","",""
"null","<div style=""font-size:60px;""> </div>","null","html-keyboard-response","497","527282","0.0-7.0-4.54","","","fixation_3","","","","","",""
"null","","null","html-keyboard-response","498","527288","0.0-7.0-5.54","","","test","uparrow","1","1","FALSE","FALSE",""
"null","<div style=""font-size:60px;""> </div>","null","html-keyboard-response","499","527590","0.0-7.0-6.54","","","fixation_4","","","","","",""
"416.80000001192093","arrows.png","38","image-keyboard-response","500","528008","0.0-7.0-7.54","","","test","uparrow","1","1","FALSE","FALSE","true"
"null","<p style=""color: green; font-size:300%;"">correct: $7.50</p>","null","html-keyboard-response","501","529262","0.0-7.0-8.54","","","","","","","","",""
"null","<div style=""font-size:60px;""> </div>","null","html-keyboard-response","502","530566","0.0-7.0-0.55","","","fixation_1","","","","","",""
"null","","null","image-keyboard-response","503","530573","0.0-7.0-1.55","","","test","rightarrow","1","1","FALSE","FALSE",""
"null","<div style=""font-size:60px;""> </div>","null","html-keyboard-response","504","530875","0.0-7.0-2.55","","","fixation_2","","","","","",""
"null","img_2.bmp","null","image-keyboard-response","505","531877","0.0-7.0-3.55","","","img_on","","","","","",""
"null","<div style=""font-size:60px;""> </div>","null","html-keyboard-response","506","532178","0.0-7.0-4.55","","","fixation_3","","","","","",""
"null","","null","html-keyboard-response","507","532185","0.0-7.0-5.55","","","test","rightarrow","1","1","FALSE","FALSE",""
"null","<div style=""font-size:60px;""> </div>","null","html-keyboard-response","508","532486","0.0-7.0-6.55","","","fixation_4","","","","","",""
"307.5","arrows.png","39","image-keyboard-response","509","532795","0.0-7.0-7.55","","","test","rightarrow","1","1","FALSE","FALSE","true"
"null","<p style=""color: green; font-size:300%;"">correct: $7.50</p>","null","html-keyboard-response","510","534049","0.0-7.0-8.55","","","","","","","","",""
"null","<div style=""font-size:60px;""> </div>","null","html-keyboard-response","511","534603","0.0-7.0-0.56","","","fixation_1","","","","","",""
"null","","null","image-keyboard-response","512","534610","0.0-7.0-1.56","","","test","leftarrow","0","1","FALSE","FALSE",""
"null","<div style=""font-size:60px;""> </div>","null","html-keyboard-response","513","534912","0.0-7.0-2.56","","","fixation_2","","","","","",""
"null","img_4.bmp","null","image-keyboard-response","514","535923","0.0-7.0-3.56","","","img_on","","","","","",""
"null","<div style=""font-size:60px;""> </div>","null","html-keyboard-response","515","536225","0.0-7.0-4.56","","","fixation_3","","","","","",""
"null","","null","html-keyboard-response","516","536231","0.0-7.0-5.56","","","test","leftarrow","0","1","FALSE","FALSE",""
"null","<div style=""font-size:60px;""> </div>","null","html-keyboard-response","517","536532","0.0-7.0-6.56","","","fixation_4","","","","","",""
"394.7999999821186","arrows.png","37","image-keyboard-response","518","536928","0.0-7.0-7.56","","","test","leftarrow","0","1","FALSE","FALSE","true"
"null","<p style=""color: green; font-size:300%;"">correct: $2.50</p>","null","html-keyboard-response","519","538182","0.0-7.0-8.56","","","","","","","","",""
"null","<div style=""font-size:60px;""> </div>","null","html-keyboard-response","520","539486","0.0-7.0-0.57","","","fixation_1","","","","","",""
"null","","null","image-keyboard-response","521","539494","0.0-7.0-1.57","","","test","downarrow","0","1","FALSE","FALSE",""
"null","<div style=""font-size:60px;""> </div>","null","html-keyboard-response","522","539796","0.0-7.0-2.57","","","fixation_2","","","","","",""
"null","img_3.bmp","null","image-keyboard-response","523","540798","0.0-7.0-3.57","","","img_on","","","","","",""
"null","<div style=""font-size:60px;""> </div>","null","html-keyboard-response","524","541100","0.0-7.0-4.57","","","fixation_3","","","","","",""
"null","","null","html-keyboard-response","525","541107","0.0-7.0-5.57","","","test","downarrow","0","1","FALSE","FALSE",""
"null","<div style=""font-size:60px;""> </div>","null","html-keyboard-response","526","541409","0.0-7.0-6.57","","","fixation_4","","","","","",""
"258.19999998807907","arrows.png","40","image-keyboard-response","527","541670","0.0-7.0-7.57","","","test","downarrow","0","1","FALSE","FALSE","true"
"null","<p style=""color: green; font-size:300%;"">correct: $2.50</p>","null","html-keyboard-response","528","542930","0.0-7.0-8.57","","","","","","","","",""
"null","<div style=""font-size:60px;""> </div>","null","html-keyboard-response","529","543733","0.0-7.0-0.58","","","fixation_1","","","","","",""
"null","","null","image-keyboard-response","530","543740","0.0-7.0-1.58","","","test","rightarrow","1","1","FALSE","FALSE",""
"null","<div style=""font-size:60px;""> </div>","null","html-keyboard-response","531","544042","0.0-7.0-2.58","","","fixation_2","","","","","",""
"null","img_2.bmp","null","image-keyboard-response","532","545044","0.0-7.0-3.58","","","img_on","","","","","",""
"null","<div style=""font-size:60px;""> </div>","null","html-keyboard-response","533","545346","0.0-7.0-4.58","","","fixation_3","","","","","",""
"null","","null","html-keyboard-response","534","545352","0.0-7.0-5.58","","","test","rightarrow","1","1","FALSE","FALSE",""
"null","<div style=""font-size:60px;""> </div>","null","html-keyboard-response","535","545654","0.0-7.0-6.58","","","fixation_4","","","","","",""
"325.69999998807907","arrows.png","39","image-keyboard-response","536","545981","0.0-7.0-7.58","","","test","rightarrow","1","1","FALSE","FALSE","true"
"null","<p style=""color: green; font-size:300%;"">correct: $7.50</p>","null","html-keyboard-response","537","547235","0.0-7.0-8.58","","","","","","","","",""
"null","<div style=""font-size:60px;""> </div>","null","html-keyboard-response","538","548538","0.0-7.0-0.59","","","fixation_1","","","","","",""
"null","","null","image-keyboard-response","539","548545","0.0-7.0-1.59","","","test","uparrow","1","1","FALSE","FALSE",""
"null","<div style=""font-size:60px;""> </div>","null","html-keyboard-response","540","548847","0.0-7.0-2.59","","","fixation_2","","","","","",""
"null","img_1.bmp","null","image-keyboard-response","541","549852","0.0-7.0-3.59","","","img_on","","","","","",""
"null","<div style=""font-size:60px;""> </div>","null","html-keyboard-response","542","550154","0.0-7.0-4.59","","","fixation_3","","","","","",""
"null","","null","html-keyboard-response","543","550160","0.0-7.0-5.59","","","test","uparrow","1","1","FALSE","FALSE",""
"null","<div style=""font-size:60px;""> </div>","null","html-keyboard-response","544","550470","0.0-7.0-6.59","","","fixation_4","","","","","",""
"303.90000000596046","arrows.png","38","image-keyboard-response","545","550776","0.0-7.0-7.59","","","test","uparrow","1","1","FALSE","FALSE","true"
"null","<p style=""color: green; font-size:300%;"">correct: $7.50</p>","null","html-keyboard-response","546","552031","0.0-7.0-8.59","","","","","","","","",""
"null","<div style=""font-size:60px;""> </div>","null","html-keyboard-response","547","552835","0.0-7.0-0.60","","","fixation_1","","","","","",""
"null","","null","image-keyboard-response","548","552840","0.0-7.0-1.60","","","test","downarrow","0","1","FALSE","FALSE",""
"null","<div style=""font-size:60px;""> </div>","null","html-keyboard-response","549","553142","0.0-7.0-2.60","","","fixation_2","","","","","",""
"null","img_3.bmp","null","image-keyboard-response","550","554145","0.0-7.0-3.60","","","img_on","","","","","",""
"null","<div style=""font-size:60px;""> </div>","null","html-keyboard-response","551","554447","0.0-7.0-4.60","","","fixation_3","","","","","",""
"null","","null","html-keyboard-response","552","554454","0.0-7.0-5.60","","","test","downarrow","0","1","FALSE","FALSE",""
"null","<div style=""font-size:60px;""> </div>","null","html-keyboard-response","553","554756","0.0-7.0-6.60","","","fixation_4","","","","","",""
"321.7000000178814","arrows.png","40","image-keyboard-response","554","555079","0.0-7.0-7.60","","","test","downarrow","0","1","FALSE","FALSE","true"
"null","<p style=""color: green; font-size:300%;"">correct: $2.50</p>","null","html-keyboard-response","555","556332","0.0-7.0-8.60","","","","","","","","",""
"null","<div style=""font-size:60px;""> </div>","null","html-keyboard-response","556","557884","0.0-7.0-0.61","","","fixation_1","","","","","",""
"null","","null","image-keyboard-response","557","557892","0.0-7.0-1.61","","","test","rightarrow","1","1","FALSE","FALSE",""
"null","<div style=""font-size:60px;""> </div>","null","html-keyboard-response","558","558194","0.0-7.0-2.61","","","fixation_2","","","","","",""
"null","img_2.bmp","null","image-keyboard-response","559","559197","0.0-7.0-3.61","","","img_on","","","","","",""
"null","<div style=""font-size:60px;""> </div>","null","html-keyboard-response","560","559499","0.0-7.0-4.61","","","fixation_3","","","","","",""
"null","","null","html-keyboard-response","561","559506","0.0-7.0-5.61","","","test","rightarrow","1","1","FALSE","FALSE",""
"null","<div style=""font-size:60px;""> </div>","null","html-keyboard-response","562","559808","0.0-7.0-6.61","","","fixation_4","","","","","",""
"384.59999999403954","arrows.png","39","image-keyboard-response","563","560194","0.0-7.0-7.61","","","test","rightarrow","1","1","FALSE","FALSE","true"
"null","<p style=""color: green; font-size:300%;"">correct: $7.50</p>","null","html-keyboard-response","564","561446","0.0-7.0-8.61","","","","","","","","",""
"null","<div style=""font-size:60px;""> </div>","null","html-keyboard-response","565","562000","0.0-7.0-0.62","","","fixation_1","","","","","",""
"null","","null","image-keyboard-response","566","562006","0.0-7.0-1.62","","","test","leftarrow","0","1","FALSE","FALSE",""
"null","<div style=""font-size:60px;""> </div>","null","html-keyboard-response","567","562308","0.0-7.0-2.62","","","fixation_2","","","","","",""
"null","img_4.bmp","null","image-keyboard-response","568","563311","0.0-7.0-3.62","","","img_on","","","","","",""
"null","<div style=""font-size:60px;""> </div>","null","html-keyboard-response","569","563614","0.0-7.0-4.62","","","fixation_3","","","","","",""
"null","","null","html-keyboard-response","570","563621","0.0-7.0-5.62","","","test","leftarrow","0","1","FALSE","FALSE",""
"null","<div style=""font-size:60px;""> </div>","null","html-keyboard-response","571","563932","0.0-7.0-6.62","","","fixation_4","","","","","",""
"434","arrows.png","37","image-keyboard-response","572","564367","0.0-7.0-7.62","","","test","leftarrow","0","1","FALSE","FALSE","true"
"null","<p style=""color: green; font-size:300%;"">correct: $2.50</p>","null","html-keyboard-response","573","565618","0.0-7.0-8.62","","","","","","","","",""
"null","<div style=""font-size:60px;""> </div>","null","html-keyboard-response","574","566922","0.0-7.0-0.63","","","fixation_1","","","","","",""
"null","","null","image-keyboard-response","575","566928","0.0-7.0-1.63","","","test","uparrow","1","1","FALSE","FALSE",""
"null","<div style=""font-size:60px;""> </div>","null","html-keyboard-response","576","567230","0.0-7.0-2.63","","","fixation_2","","","","","",""
"null","img_1.bmp","null","image-keyboard-response","577","568234","0.0-7.0-3.63","","","img_on","","","","","",""
"null","<div style=""font-size:60px;""> </div>","null","html-keyboard-response","578","568536","0.0-7.0-4.63","","","fixation_3","","","","","",""
"null","","null","html-keyboard-response","579","568543","0.0-7.0-5.63","","","test","uparrow","1","1","FALSE","FALSE",""
"null","<div style=""font-size:60px;""> </div>","null","html-keyboard-response","580","568845","0.0-7.0-6.63","","","fixation_4","","","","","",""
"409.69999998807907","arrows.png","38","image-keyboard-response","581","569256","0.0-7.0-7.63","","","test","uparrow","1","1","FALSE","FALSE","true"
"null","<p style=""color: green; font-size:300%;"">correct: $7.50</p>","null","html-keyboard-response","582","570509","0.0-7.0-8.63","","","","","","","","",""
"null","<div style=""font-size:60px;""> </div>","null","html-keyboard-response","583","572071","0.0-7.0-0.64","","","fixation_1","","","","","",""
"null","","null","image-keyboard-response","584","572078","0.0-7.0-1.64","","","test","uparrow","0","2","FALSE","FALSE",""
"null","<div style=""font-size:60px;""> </div>","null","html-keyboard-response","585","572380","0.0-7.0-2.64","","","fixation_2","","","","","",""
"null","img_8.bmp","null","image-keyboard-response","586","573382","0.0-7.0-3.64","","","img_on","","","","","",""
"null","<div style=""font-size:60px;""> </div>","null","html-keyboard-response","587","573682","0.0-7.0-4.64","","","fixation_3","","","","","",""
"null","","null","html-keyboard-response","588","573689","0.0-7.0-5.64","","","test","uparrow","0","2","FALSE","FALSE",""
"null","<div style=""font-size:60px;""> </div>","null","html-keyboard-response","589","573991","0.0-7.0-6.64","","","fixation_4","","","","","",""
"363.7999999821186","arrows.png","38","image-keyboard-response","590","574357","0.0-7.0-7.64","","","test","uparrow","0","2","FALSE","FALSE","true"
"null","<p style=""color: green; font-size:300%;"">correct: $2.50</p>","null","html-keyboard-response","591","575620","0.0-7.0-8.64","","","","","","","","",""
"null","<div style=""font-size:60px;""> </div>","null","html-keyboard-response","592","576674","0.0-7.0-0.65","","","fixation_1","","","","","",""
"null","","null","image-keyboard-response","593","576681","0.0-7.0-1.65","","","test","rightarrow","0","2","FALSE","FALSE",""
"null","<div style=""font-size:60px;""> </div>","null","html-keyboard-response","594","576996","0.0-7.0-2.65","","","fixation_2","","","","","",""
"null","img_5.bmp","null","image-keyboard-response","595","577998","0.0-7.0-3.65","","","img_on","","","","","",""
"null","<div style=""font-size:60px;""> </div>","null","html-keyboard-response","596","578299","0.0-7.0-4.65","","","fixation_3","","","","","",""
"null","","null","html-keyboard-response","597","578306","0.0-7.0-5.65","","","test","rightarrow","0","2","FALSE","FALSE",""
"null","<div style=""font-size:60px;""> </div>","null","html-keyboard-response","598","578608","0.0-7.0-6.65","","","fixation_4","","","","","",""
"319.5","arrows.png","39","image-keyboard-response","599","578929","0.0-7.0-7.65","","","test","rightarrow","0","2","FALSE","FALSE","true"
"null","<p style=""color: green; font-size:300%;"">correct: $2.50</p>","null","html-keyboard-response","600","580183","0.0-7.0-8.65","","","","","","","","",""
"null","<div style=""font-size:60px;""> </div>","null","html-keyboard-response","601","581736","0.0-7.0-0.66","","","fixation_1","","","","","",""
"null","","null","image-keyboard-response","602","581743","0.0-7.0-1.66","","","test","downarrow","1","2","FALSE","FALSE",""
"null","<div style=""font-size:60px;""> </div>","null","html-keyboard-response","603","582045","0.0-7.0-2.66","","","fixation_2","","","","","",""
"null","img_6.bmp","null","image-keyboard-response","604","583046","0.0-7.0-3.66","","","img_on","","","","","",""
"null","<div style=""font-size:60px;""> </div>","null","html-keyboard-response","605","583348","0.0-7.0-4.66","","","fixation_3","","","","","",""
"null","","null","html-keyboard-response","606","583355","0.0-7.0-5.66","","","test","downarrow","1","2","FALSE","FALSE",""
"null","<div style=""font-size:60px;""> </div>","null","html-keyboard-response","607","583656","0.0-7.0-6.66","","","fixation_4","","","","","",""
"316","arrows.png","40","image-keyboard-response","608","583974","0.0-7.0-7.66","","","test","downarrow","1","2","FALSE","FALSE","true"
"null","<p style=""color: green; font-size:300%;"">correct: $7.50</p>","null","html-keyboard-response","609","585226","0.0-7.0-8.66","","","","","","","","",""
"null","<div style=""font-size:60px;""> </div>","null","html-keyboard-response","610","586779","0.0-7.0-0.67","","","fixation_1","","","","","",""
"null","","null","image-keyboard-response","611","586786","0.0-7.0-1.67","","","test","leftarrow","1","2","FALSE","FALSE",""
"null","<div style=""font-size:60px;""> </div>","null","html-keyboard-response","612","587098","0.0-7.0-2.67","","","fixation_2","","","","","",""
"null","img_7.bmp","null","image-keyboard-response","613","588101","0.0-7.0-3.67","","","img_on","","","","","",""
"null","<div style=""font-size:60px;""> </div>","null","html-keyboard-response","614","588403","0.0-7.0-4.67","","","fixation_3","","","","","",""
"null","","null","html-keyboard-response","615","588409","0.0-7.0-5.67","","","test","leftarrow","1","2","FALSE","FALSE",""
"null","<div style=""font-size:60px;""> </div>","null","html-keyboard-response","616","588710","0.0-7.0-6.67","","","fixation_4","","","","","",""
"262.09999999403954","arrows.png","37","image-keyboard-response","617","588973","0.0-7.0-7.67","","","test","leftarrow","1","2","FALSE","FALSE","true"
"null","<p style=""color: green; font-size:300%;"">correct: $7.50</p>","null","html-keyboard-response","618","590228","0.0-7.0-8.67","","","","","","","","",""
"null","<div style=""font-size:60px;""> </div>","null","html-keyboard-response","619","590782","0.0-7.0-0.68","","","fixation_1","","","","","",""
"null","","null","image-keyboard-response","620","590788","0.0-7.0-1.68","","","test","leftarrow","1","2","FALSE","FALSE",""
"null","<div style=""font-size:60px;""> </div>","null","html-keyboard-response","621","591090","0.0-7.0-2.68","","","fixation_2","","","","","",""
"null","img_7.bmp","null","image-keyboard-response","622","592092","0.0-7.0-3.68","","","img_on","","","","","",""
"null","<div style=""font-size:60px;""> </div>","null","html-keyboard-response","623","592407","0.0-7.0-4.68","","","fixation_3","","","","","",""
"null","","null","html-keyboard-response","624","592414","0.0-7.0-5.68","","","test","leftarrow","1","2","FALSE","FALSE",""
"null","<div style=""font-size:60px;""> </div>","null","html-keyboard-response","625","592716","0.0-7.0-6.68","","","fixation_4","","","","","",""
"287.7999999821186","arrows.png","37","image-keyboard-response","626","593005","0.0-7.0-7.68","","","test","leftarrow","1","2","FALSE","FALSE","true"
"null","<p style=""color: green; font-size:300%;"">correct: $7.50</p>","null","html-keyboard-response","627","594258","0.0-7.0-8.68","","","","","","","","",""
"null","<div style=""font-size:60px;""> </div>","null","html-keyboard-response","628","595062","0.0-7.0-0.69","","","fixation_1","","","","","",""
"null","","null","image-keyboard-response","629","595069","0.0-7.0-1.69","","","test","rightarrow","0","2","FALSE","FALSE",""
"null","<div style=""font-size:60px;""> </div>","null","html-keyboard-response","630","595371","0.0-7.0-2.69","","","fixation_2","","","","","",""
"null","img_5.bmp","null","image-keyboard-response","631","596374","0.0-7.0-3.69","","","img_on","","","","","",""
"null","<div style=""font-size:60px;""> </div>","null","html-keyboard-response","632","596676","0.0-7.0-4.69","","","fixation_3","","","","","",""
"null","","null","html-keyboard-response","633","596683","0.0-7.0-5.69","","","test","rightarrow","0","2","FALSE","FALSE",""
"null","<div style=""font-size:60px;""> </div>","null","html-keyboard-response","634","596985","0.0-7.0-6.69","","","fixation_4","","","","","",""
"318.7000000178814","arrows.png","39","image-keyboard-response","635","597305","0.0-7.0-7.69","","","test","rightarrow","0","2","FALSE","FALSE","true"
"null","<p style=""color: green; font-size:300%;"">correct: $2.50</p>","null","html-keyboard-response","636","598559","0.0-7.0-8.69","","","","","","","","",""
"null","<div style=""font-size:60px;""> </div>","null","html-keyboard-response","637","599376","0.0-7.0-0.70","","","fixation_1","","","","","",""
"null","","null","image-keyboard-response","638","599383","0.0-7.0-1.70","","","test","downarrow","1","2","FALSE","FALSE",""
"null","<div style=""font-size:60px;""> </div>","null","html-keyboard-response","639","599683","0.0-7.0-2.70","","","fixation_2","","","","","",""
"null","img_6.bmp","null","image-keyboard-response","640","600686","0.0-7.0-3.70","","","img_on","","","","","",""
"null","<div style=""font-size:60px;""> </div>","null","html-keyboard-response","641","600988","0.0-7.0-4.70","","","fixation_3","","","","","",""
"null","","null","html-keyboard-response","642","600994","0.0-7.0-5.70","","","test","downarrow","1","2","FALSE","FALSE",""
"null","<div style=""font-size:60px;""> </div>","null","html-keyboard-response","643","601296","0.0-7.0-6.70","","","fixation_4","","","","","",""
"271.7999999821186","arrows.png","40","image-keyboard-response","644","601569","0.0-7.0-7.70","","","test","downarrow","1","2","FALSE","FALSE","true"
"null","<p style=""color: green; font-size:300%;"">correct: $7.50</p>","null","html-keyboard-response","645","602822","0.0-7.0-8.70","","","","","","","","",""
"null","<div style=""font-size:60px;""> </div>","null","html-keyboard-response","646","603626","0.0-7.0-0.71","","","fixation_1","","","","","",""
"null","","null","image-keyboard-response","647","603632","0.0-7.0-1.71","","","test","uparrow","0","2","FALSE","FALSE",""
"null","<div style=""font-size:60px;""> </div>","null","html-keyboard-response","648","603933","0.0-7.0-2.71","","","fixation_2","","","","","",""
"null","img_8.bmp","null","image-keyboard-response","649","604939","0.0-7.0-3.71","","","img_on","","","","","",""
"null","<div style=""font-size:60px;""> </div>","null","html-keyboard-response","650","605242","0.0-7.0-4.71","","","fixation_3","","","","","",""
"null","","null","html-keyboard-response","651","605248","0.0-7.0-5.71","","","test","uparrow","0","2","FALSE","FALSE",""
"null","<div style=""font-size:60px;""> </div>","null","html-keyboard-response","652","605550","0.0-7.0-6.71","","","fixation_4","","","","","",""
"364.60000002384186","arrows.png","38","image-keyboard-response","653","605916","0.0-7.0-7.71","","","test","uparrow","0","2","FALSE","FALSE","true"
"null","<p style=""color: green; font-size:300%;"">correct: $2.50</p>","null","html-keyboard-response","654","607169","0.0-7.0-8.71","","","","","","","","",""
"null","<div style=""font-size:60px;""> </div>","null","html-keyboard-response","655","608721","0.0-7.0-0.72","","","fixation_1","","","","","",""
"null","","null","image-keyboard-response","656","608728","0.0-7.0-1.72","","","test","downarrow","1","2","FALSE","FALSE",""
"null","<div style=""font-size:60px;""> </div>","null","html-keyboard-response","657","609030","0.0-7.0-2.72","","","fixation_2","","","","","",""
"null","img_6.bmp","null","image-keyboard-response","658","610034","0.0-7.0-3.72","","","img_on","","","","","",""
"null","<div style=""font-size:60px;""> </div>","null","html-keyboard-response","659","610336","0.0-7.0-4.72","","","fixation_3","","","","","",""
"null","","null","html-keyboard-response","660","610343","0.0-7.0-5.72","","","test","downarrow","1","2","FALSE","FALSE",""
"null","<div style=""font-size:60px;""> </div>","null","html-keyboard-response","661","610645","0.0-7.0-6.72","","","fixation_4","","","","","",""
"282.2999999821186","arrows.png","40","image-keyboard-response","662","610929","0.0-7.0-7.72","","","test","downarrow","1","2","FALSE","FALSE","true"
"null","<p style=""color: green; font-size:300%;"">correct: $7.50</p>","null","html-keyboard-response","663","612182","0.0-7.0-8.72","","","","","","","","",""
"null","<div style=""font-size:60px;""> </div>","null","html-keyboard-response","664","613747","0.0-7.0-0.73","","","fixation_1","","","","","",""
"null","","null","image-keyboard-response","665","613755","0.0-7.0-1.73","","","test","leftarrow","1","2","FALSE","FALSE",""
"null","<div style=""font-size:60px;""> </div>","null","html-keyboard-response","666","614056","0.0-7.0-2.73","","","fixation_2","","","","","",""
"null","img_7.bmp","null","image-keyboard-response","667","615057","0.0-7.0-3.73","","","img_on","","","","","",""
"null","<div style=""font-size:60px;""> </div>","null","html-keyboard-response","668","615359","0.0-7.0-4.73","","","fixation_3","","","","","",""
"null","","null","html-keyboard-response","669","615365","0.0-7.0-5.73","","","test","leftarrow","1","2","FALSE","FALSE",""
"null","<div style=""font-size:60px;""> </div>","null","html-keyboard-response","670","615667","0.0-7.0-6.73","","","fixation_4","","","","","",""
"294.59999999403954","arrows.png","37","image-keyboard-response","671","615963","0.0-7.0-7.73","","","test","leftarrow","1","2","FALSE","FALSE","true"
"null","<p style=""color: green; font-size:300%;"">correct: $7.50</p>","null","html-keyboard-response","672","617217","0.0-7.0-8.73","","","","","","","","",""
"null","<div style=""font-size:60px;""> </div>","null","html-keyboard-response","673","618520","0.0-7.0-0.74","","","fixation_1","","","","","",""
"null","","null","image-keyboard-response","674","618526","0.0-7.0-1.74","","","test","rightarrow","0","2","FALSE","FALSE",""
"null","<div style=""font-size:60px;""> </div>","null","html-keyboard-response","675","618829","0.0-7.0-2.74","","","fixation_2","","","","","",""
"null","img_5.bmp","null","image-keyboard-response","676","619832","0.0-7.0-3.74","","","img_on","","","","","",""
"null","<div style=""font-size:60px;""> </div>","null","html-keyboard-response","677","620134","0.0-7.0-4.74","","","fixation_3","","","","","",""
"null","","null","html-keyboard-response","678","620140","0.0-7.0-5.74","","","test","rightarrow","0","2","FALSE","FALSE",""
"null","<div style=""font-size:60px;""> </div>","null","html-keyboard-response","679","620455","0.0-7.0-6.74","","","fixation_4","","","","","",""
"289.59999999403954","arrows.png","39","image-keyboard-response","680","620746","0.0-7.0-7.74","","","test","rightarrow","0","2","FALSE","FALSE","true"
"null","<p style=""color: green; font-size:300%;"">correct: $2.50</p>","null","html-keyboard-response","681","622000","0.0-7.0-8.74","","","","","","","","",""
"null","<div style=""font-size:60px;""> </div>","null","html-keyboard-response","682","622554","0.0-7.0-0.75","","","fixation_1","","","","","",""
"null","","null","image-keyboard-response","683","622561","0.0-7.0-1.75","","","test","uparrow","0","2","FALSE","FALSE",""
"null","<div style=""font-size:60px;""> </div>","null","html-keyboard-response","684","622862","0.0-7.0-2.75","","","fixation_2","","","","","",""
"null","img_8.bmp","null","image-keyboard-response","685","623865","0.0-7.0-3.75","","","img_on","","","","","",""
"null","<div style=""font-size:60px;""> </div>","null","html-keyboard-response","686","624168","0.0-7.0-4.75","","","fixation_3","","","","","",""
"null","","null","html-keyboard-response","687","624175","0.0-7.0-5.75","","","test","uparrow","0","2","FALSE","FALSE",""
"null","<div style=""font-size:60px;""> </div>","null","html-keyboard-response","688","624477","0.0-7.0-6.75","","","fixation_4","","","","","",""
"345.69999998807907","arrows.png","38","image-keyboard-response","689","624824","0.0-7.0-7.75","","","test","uparrow","0","2","FALSE","FALSE","true"
"null","<p style=""color: green; font-size:300%;"">correct: $2.50</p>","null","html-keyboard-response","690","626078","0.0-7.0-8.75","","","","","","","","",""
"null","<div style=""font-size:60px;""> </div>","null","html-keyboard-response","691","627631","0.0-7.0-0.76","","","fixation_1","","","","","",""
"null","","null","image-keyboard-response","692","627638","0.0-7.0-1.76","","","test","leftarrow","1","2","FALSE","FALSE",""
"null","<div style=""font-size:60px;""> </div>","null","html-keyboard-response","693","627940","0.0-7.0-2.76","","","fixation_2","","","","","",""
"null","img_7.bmp","null","image-keyboard-response","694","628943","0.0-7.0-3.76","","","img_on","","","","","",""
"null","<div style=""font-size:60px;""> </div>","null","html-keyboard-response","695","629245","0.0-7.0-4.76","","","fixation_3","","","","","",""
"null","","null","html-keyboard-response","696","629252","0.0-7.0-5.76","","","test","leftarrow","1","2","FALSE","FALSE",""
"null","<div style=""font-size:60px;""> </div>","null","html-keyboard-response","697","629554","0.0-7.0-6.76","","","fixation_4","","","","","",""
"307.69999998807907","arrows.png","37","image-keyboard-response","698","629863","0.0-7.0-7.76","","","test","leftarrow","1","2","FALSE","FALSE","true"
"null","<p style=""color: green; font-size:300%;"">correct: $7.50</p>","null","html-keyboard-response","699","631116","0.0-7.0-8.76","","","","","","","","",""
"null","<div style=""font-size:60px;""> </div>","null","html-keyboard-response","700","631669","0.0-7.0-0.77","","","fixation_1","","","","","",""
"null","","null","image-keyboard-response","701","631676","0.0-7.0-1.77","","","test","rightarrow","0","2","FALSE","FALSE",""
"null","<div style=""font-size:60px;""> </div>","null","html-keyboard-response","702","631978","0.0-7.0-2.77","","","fixation_2","","","","","",""
"null","img_5.bmp","null","image-keyboard-response","703","632981","0.0-7.0-3.77","","","img_on","","","","","",""
"null","<div style=""font-size:60px;""> </div>","null","html-keyboard-response","704","633283","0.0-7.0-4.77","","","fixation_3","","","","","",""
"null","","null","html-keyboard-response","705","633290","0.0-7.0-5.77","","","test","rightarrow","0","2","FALSE","FALSE",""
"null","<div style=""font-size:60px;""> </div>","null","html-keyboard-response","706","633601","0.0-7.0-6.77","","","fixation_4","","","","","",""
"278.2999999821186","arrows.png","39","image-keyboard-response","707","633882","0.0-7.0-7.77","","","test","rightarrow","0","2","FALSE","FALSE","true"
"null","<p style=""color: green; font-size:300%;"">correct: $2.50</p>","null","html-keyboard-response","708","635136","0.0-7.0-8.77","","","","","","","","",""
"null","<div style=""font-size:60px;""> </div>","null","html-keyboard-response","709","636189","0.0-7.0-0.78","","","fixation_1","","","","","",""
