"rt","stimulus","key_press","trial_type","trial_index","time_elapsed","internal_node_id","responses","view_history","test_part","correct_response","outcome","context","cc","sc","correct"
"3208.5","<p><b>Welcome to the Picture Learning Game!</b></p>
      <p>The game will take ~35 minutes to complete, and you can make up to $17.50.</p>
      <p>You must use a desktop or laptop computer computer (no mobile devices).</p>
      <p><em>Press any key to continue.</em></p>","38","html-keyboard-response","0","3233","0.0-0.0","","","","","","","","",""
"3838.699999999255","","","survey-text","1","7076","0.0-1.0","{""aws"":""A3EG4C9T4F5DUR""}","","","","","","","",""
"9778.699999999255","","","survey-text","2","16864","0.0-2.0","{""age"":""31"",""english"":""Y"",""handedness"":""R"",""desktop"":""Y""}","","","","","","","",""
"28264.79999999702","","","instructions","3","45131","0.0-3.0","","[{""page_index"":0,""viewing_time"":1129.0999999977648},{""page_index"":1,""viewing_time"":7727.60000000149},{""page_index"":2,""viewing_time"":2928},{""page_index"":3,""viewing_time"":13567.699999999255},{""page_index"":4,""viewing_time"":2912.10000000149}]","","","","","","",""
"null","sample1.bmp","null","image-keyboard-response","4","46135","0.0-4.0","","","","","","","","",""
"1657.9000000022352","arrows.png","38","image-keyboard-response","5","48094","0.0-5.0","","","","","","","","",""
"195218.69999999925","","","instructions","6","243313","0.0-6.0","","[{""page_index"":0,""viewing_time"":979.1999999992549},{""page_index"":1,""viewing_time"":1224},{""page_index"":2,""viewing_time"":171286.8999999985},{""page_index"":3,""viewing_time"":9807.800000000745},{""page_index"":4,""viewing_time"":7783.800000000745},{""page_index"":5,""viewing_time"":3120.5},{""page_index"":6,""viewing_time"":1016.1000000014901}]","","","","","","",""
"null","<div style=""font-size:60px;""> </div>","null","html-keyboard-response","7","243614","0.0-7.0-0.0","","","fixation_1","","","","","",""
"null","","null","image-keyboard-response","8","243617","0.0-7.0-1.0","","","test","uparrow","1","1","FALSE","FALSE",""
"null","<div style=""font-size:60px;""> </div>","null","html-keyboard-response","9","243919","0.0-7.0-2.0","","","fixation_2","","","","","",""
"null","img_1.bmp","null","image-keyboard-response","10","244921","0.0-7.0-3.0","","","img_on","","","","","",""
"null","<div style=""font-size:60px;""> </div>","null","html-keyboard-response","11","245222","0.0-7.0-4.0","","","fixation_3","","","","","",""
"null","","null","html-keyboard-response","12","245231","0.0-7.0-5.0","","","test","uparrow","1","1","FALSE","FALSE",""
"null","<div style=""font-size:60px;""> </div>","null","html-keyboard-response","13","245532","0.0-7.0-6.0","","","fixation_4","","","","","",""
"1119.1000000014901","arrows.png","40","image-keyboard-response","14","246652","0.0-7.0-7.0","","","test","uparrow","1","1","FALSE","FALSE","false"
"null","<p style=""color: red; font-size:300%;"">incorrect: $0</p>","null","html-keyboard-response","15","247906","0.0-7.0-8.0","","","","","","","","",""
"null","<div style=""font-size:60px;""> </div>","null","html-keyboard-response","16","248459","0.0-7.0-0.1","","","fixation_1","","","","","",""
"null","","null","image-keyboard-response","17","248467","0.0-7.0-1.1","","","test","rightarrow","1","1","FALSE","FALSE",""
"null","<div style=""font-size:60px;""> </div>","null","html-keyboard-response","18","248769","0.0-7.0-2.1","","","fixation_2","","","","","",""
"null","img_2.bmp","null","image-keyboard-response","19","249772","0.0-7.0-3.1","","","img_on","","","","","",""
"null","<div style=""font-size:60px;""> </div>","null","html-keyboard-response","20","250074","0.0-7.0-4.1","","","fixation_3","","","","","",""
"null","","null","html-keyboard-response","21","250080","0.0-7.0-5.1","","","test","rightarrow","1","1","FALSE","FALSE",""
"null","<div style=""font-size:60px;""> </div>","null","html-keyboard-response","22","250383","0.0-7.0-6.1","","","fixation_4","","","","","",""
"796.6000000014901","arrows.png","37","image-keyboard-response","23","251182","0.0-7.0-7.1","","","test","rightarrow","1","1","FALSE","FALSE","false"
"null","<p style=""color: red; font-size:300%;"">incorrect: $0</p>","null","html-keyboard-response","24","252436","0.0-7.0-8.1","","","","","","","","",""
"null","<div style=""font-size:60px;""> </div>","null","html-keyboard-response","25","253239","0.0-7.0-0.2","","","fixation_1","","","","","",""
"null","","null","image-keyboard-response","26","253244","0.0-7.0-1.2","","","test","leftarrow","0","1","FALSE","FALSE",""
"null","<div style=""font-size:60px;""> </div>","null","html-keyboard-response","27","253545","0.0-7.0-2.2","","","fixation_2","","","","","",""
"null","img_4.bmp","null","image-keyboard-response","28","254547","0.0-7.0-3.2","","","img_on","","","","","",""
"null","<div style=""font-size:60px;""> </div>","null","html-keyboard-response","29","254850","0.0-7.0-4.2","","","fixation_3","","","","","",""
"null","","null","html-keyboard-response","30","254856","0.0-7.0-5.2","","","test","leftarrow","0","1","FALSE","FALSE",""
"null","<div style=""font-size:60px;""> </div>","null","html-keyboard-response","31","255157","0.0-7.0-6.2","","","fixation_4","","","","","",""
"831","arrows.png","40","image-keyboard-response","32","255989","0.0-7.0-7.2","","","test","leftarrow","0","1","FALSE","FALSE","false"
"null","<p style=""color: red; font-size:300%;"">incorrect: $0</p>","null","html-keyboard-response","33","257242","0.0-7.0-8.2","","","","","","","","",""
"null","<div style=""font-size:60px;""> </div>","null","html-keyboard-response","34","257796","0.0-7.0-0.3","","","fixation_1","","","","","",""
"null","","null","image-keyboard-response","35","257802","0.0-7.0-1.3","","","test","downarrow","0","1","FALSE","FALSE",""
"null","<div style=""font-size:60px;""> </div>","null","html-keyboard-response","36","258104","0.0-7.0-2.3","","","fixation_2","","","","","",""
"null","img_3.bmp","null","image-keyboard-response","37","259107","0.0-7.0-3.3","","","img_on","","","","","",""
"null","<div style=""font-size:60px;""> </div>","null","html-keyboard-response","38","259408","0.0-7.0-4.3","","","fixation_3","","","","","",""
"null","","null","html-keyboard-response","39","259414","0.0-7.0-5.3","","","test","downarrow","0","1","FALSE","FALSE",""
"null","<div style=""font-size:60px;""> </div>","null","html-keyboard-response","40","259716","0.0-7.0-6.3","","","fixation_4","","","","","",""
"383.19999999925494","arrows.png","40","image-keyboard-response","41","260100","0.0-7.0-7.3","","","test","downarrow","0","1","FALSE","FALSE","true"
"null","<p style=""color: green; font-size:300%;"">correct: $2.50</p>","null","html-keyboard-response","42","261354","0.0-7.0-8.3","","","","","","","","",""
"null","<div style=""font-size:60px;""> </div>","null","html-keyboard-response","43","262406","0.0-7.0-0.4","","","fixation_1","","","","","",""
"null","","null","image-keyboard-response","44","262411","0.0-7.0-1.4","","","test","rightarrow","1","1","FALSE","FALSE",""
"null","<div style=""font-size:60px;""> </div>","null","html-keyboard-response","45","262713","0.0-7.0-2.4","","","fixation_2","","","","","",""
"null","img_2.bmp","null","image-keyboard-response","46","263715","0.0-7.0-3.4","","","img_on","","","","","",""
"null","<div style=""font-size:60px;""> </div>","null","html-keyboard-response","47","264017","0.0-7.0-4.4","","","fixation_3","","","","","",""
"null","","null","html-keyboard-response","48","264023","0.0-7.0-5.4","","","test","rightarrow","1","1","FALSE","FALSE",""
"null","<div style=""font-size:60px;""> </div>","null","html-keyboard-response","49","264325","0.0-7.0-6.4","","","fixation_4","","","","","",""
"1222.0999999977648","arrows.png","40","image-keyboard-response","50","265548","0.0-7.0-7.4","","","test","rightarrow","1","1","FALSE","FALSE","false"
"null","<p style=""color: red; font-size:300%;"">incorrect: $0</p>","null","html-keyboard-response","51","266802","0.0-7.0-8.4","","","","","","","","",""
"null","<div style=""font-size:60px;""> </div>","null","html-keyboard-response","52","267856","0.0-7.0-0.5","","","fixation_1","","","","","",""
"null","","null","image-keyboard-response","53","267862","0.0-7.0-1.5","","","test","leftarrow","0","1","FALSE","FALSE",""
"null","<div style=""font-size:60px;""> </div>","null","html-keyboard-response","54","268163","0.0-7.0-2.5","","","fixation_2","","","","","",""
"null","img_4.bmp","null","image-keyboard-response","55","269164","0.0-7.0-3.5","","","img_on","","","","","",""
"null","<div style=""font-size:60px;""> </div>","null","html-keyboard-response","56","269466","0.0-7.0-4.5","","","fixation_3","","","","","",""
"null","","null","html-keyboard-response","57","269470","0.0-7.0-5.5","","","test","leftarrow","0","1","FALSE","FALSE",""
"null","<div style=""font-size:60px;""> </div>","null","html-keyboard-response","58","269772","0.0-7.0-6.5","","","fixation_4","","","","","",""
"1703.9000000022352","arrows.png","38","image-keyboard-response","59","271476","0.0-7.0-7.5","","","test","leftarrow","0","1","FALSE","FALSE","false"
"null","<p style=""color: red; font-size:300%;"">incorrect: $0</p>","null","html-keyboard-response","60","272730","0.0-7.0-8.5","","","","","","","","",""
"null","<div style=""font-size:60px;""> </div>","null","html-keyboard-response","61","273283","0.0-7.0-0.6","","","fixation_1","","","","","",""
"null","","null","image-keyboard-response","62","273289","0.0-7.0-1.6","","","test","uparrow","1","1","FALSE","FALSE",""
"null","<div style=""font-size:60px;""> </div>","null","html-keyboard-response","63","273591","0.0-7.0-2.6","","","fixation_2","","","","","",""
"null","img_1.bmp","null","image-keyboard-response","64","274592","0.0-7.0-3.6","","","img_on","","","","","",""
"null","<div style=""font-size:60px;""> </div>","null","html-keyboard-response","65","274894","0.0-7.0-4.6","","","fixation_3","","","","","",""
"null","","null","html-keyboard-response","66","274901","0.0-7.0-5.6","","","test","uparrow","1","1","FALSE","FALSE",""
"null","<div style=""font-size:60px;""> </div>","null","html-keyboard-response","67","275203","0.0-7.0-6.6","","","fixation_4","","","","","",""
"1024.0999999977648","arrows.png","39","image-keyboard-response","68","276228","0.0-7.0-7.6","","","test","uparrow","1","1","FALSE","FALSE","false"
"null","<p style=""color: red; font-size:300%;"">incorrect: $0</p>","null","html-keyboard-response","69","277481","0.0-7.0-8.6","","","","","","","","",""
"null","<div style=""font-size:60px;""> </div>","null","html-keyboard-response","70","278034","0.0-7.0-0.7","","","fixation_1","","","","","",""
"null","","null","image-keyboard-response","71","278040","0.0-7.0-1.7","","","test","downarrow","0","1","FALSE","FALSE",""
"null","<div style=""font-size:60px;""> </div>","null","html-keyboard-response","72","278342","0.0-7.0-2.7","","","fixation_2","","","","","",""
"null","img_3.bmp","null","image-keyboard-response","73","279343","0.0-7.0-3.7","","","img_on","","","","","",""
"null","<div style=""font-size:60px;""> </div>","null","html-keyboard-response","74","279644","0.0-7.0-4.7","","","fixation_3","","","","","",""
"null","","null","html-keyboard-response","75","279651","0.0-7.0-5.7","","","test","downarrow","0","1","FALSE","FALSE",""
"null","<div style=""font-size:60px;""> </div>","null","html-keyboard-response","76","279953","0.0-7.0-6.7","","","fixation_4","","","","","",""
"361.80000000074506","arrows.png","40","image-keyboard-response","77","280316","0.0-7.0-7.7","","","test","downarrow","0","1","FALSE","FALSE","true"
"null","<p style=""color: green; font-size:300%;"">correct: $2.50</p>","null","html-keyboard-response","78","281569","0.0-7.0-8.7","","","","","","","","",""
"null","<div style=""font-size:60px;""> </div>","null","html-keyboard-response","79","282622","0.0-7.0-0.8","","","fixation_1","","","","","",""
"null","","null","image-keyboard-response","80","282627","0.0-7.0-1.8","","","test","downarrow","0","1","FALSE","FALSE",""
"null","<div style=""font-size:60px;""> </div>","null","html-keyboard-response","81","282930","0.0-7.0-2.8","","","fixation_2","","","","","",""
"null","img_3.bmp","null","image-keyboard-response","82","283933","0.0-7.0-3.8","","","img_on","","","","","",""
"null","<div style=""font-size:60px;""> </div>","null","html-keyboard-response","83","284234","0.0-7.0-4.8","","","fixation_3","","","","","",""
"null","","null","html-keyboard-response","84","284240","0.0-7.0-5.8","","","test","downarrow","0","1","FALSE","FALSE",""
"null","<div style=""font-size:60px;""> </div>","null","html-keyboard-response","85","284542","0.0-7.0-6.8","","","fixation_4","","","","","",""
"708.5","arrows.png","40","image-keyboard-response","86","285252","0.0-7.0-7.8","","","test","downarrow","0","1","FALSE","FALSE","true"
"null","<p style=""color: green; font-size:300%;"">correct: $2.50</p>","null","html-keyboard-response","87","286505","0.0-7.0-8.8","","","","","","","","",""
"null","<div style=""font-size:60px;""> </div>","null","html-keyboard-response","88","287808","0.0-7.0-0.9","","","fixation_1","","","","","",""
"null","","null","image-keyboard-response","89","287815","0.0-7.0-1.9","","","test","uparrow","1","1","FALSE","FALSE",""
"null","<div style=""font-size:60px;""> </div>","null","html-keyboard-response","90","288116","0.0-7.0-2.9","","","fixation_2","","","","","",""
"null","img_1.bmp","null","image-keyboard-response","91","289118","0.0-7.0-3.9","","","img_on","","","","","",""
"null","<div style=""font-size:60px;""> </div>","null","html-keyboard-response","92","289420","0.0-7.0-4.9","","","fixation_3","","","","","",""
"null","","null","html-keyboard-response","93","289427","0.0-7.0-5.9","","","test","uparrow","1","1","FALSE","FALSE",""
"null","<div style=""font-size:60px;""> </div>","null","html-keyboard-response","94","289731","0.0-7.0-6.9","","","fixation_4","","","","","",""
"465.19999999925494","arrows.png","37","image-keyboard-response","95","290197","0.0-7.0-7.9","","","test","uparrow","1","1","FALSE","FALSE","false"
"null","<p style=""color: red; font-size:300%;"">incorrect: $0</p>","null","html-keyboard-response","96","291451","0.0-7.0-8.9","","","","","","","","",""
"null","<div style=""font-size:60px;""> </div>","null","html-keyboard-response","97","292005","0.0-7.0-0.10","","","fixation_1","","","","","",""
"null","","null","image-keyboard-response","98","292011","0.0-7.0-1.10","","","test","leftarrow","0","1","FALSE","FALSE",""
"null","<div style=""font-size:60px;""> </div>","null","html-keyboard-response","99","292313","0.0-7.0-2.10","","","fixation_2","","","","","",""
"null","img_4.bmp","null","image-keyboard-response","100","293315","0.0-7.0-3.10","","","img_on","","","","","",""
"null","<div style=""font-size:60px;""> </div>","null","html-keyboard-response","101","293617","0.0-7.0-4.10","","","fixation_3","","","","","",""
"null","","null","html-keyboard-response","102","293622","0.0-7.0-5.10","","","test","leftarrow","0","1","FALSE","FALSE",""
"null","<div style=""font-size:60px;""> </div>","null","html-keyboard-response","103","293925","0.0-7.0-6.10","","","fixation_4","","","","","",""
"511.5","arrows.png","39","image-keyboard-response","104","294437","0.0-7.0-7.10","","","test","leftarrow","0","1","FALSE","FALSE","false"
"null","<p style=""color: red; font-size:300%;"">incorrect: $0</p>","null","html-keyboard-response","105","295691","0.0-7.0-8.10","","","","","","","","",""
"null","<div style=""font-size:60px;""> </div>","null","html-keyboard-response","106","296743","0.0-7.0-0.11","","","fixation_1","","","","","",""
"null","","null","image-keyboard-response","107","296748","0.0-7.0-1.11","","","test","rightarrow","1","1","FALSE","FALSE",""
"null","<div style=""font-size:60px;""> </div>","null","html-keyboard-response","108","297051","0.0-7.0-2.11","","","fixation_2","","","","","",""
"null","img_2.bmp","null","image-keyboard-response","109","298053","0.0-7.0-3.11","","","img_on","","","","","",""
"null","<div style=""font-size:60px;""> </div>","null","html-keyboard-response","110","298355","0.0-7.0-4.11","","","fixation_3","","","","","",""
"null","","null","html-keyboard-response","111","298361","0.0-7.0-5.11","","","test","rightarrow","1","1","FALSE","FALSE",""
"null","<div style=""font-size:60px;""> </div>","null","html-keyboard-response","112","298664","0.0-7.0-6.11","","","fixation_4","","","","","",""
"235.39999999850988","arrows.png","39","image-keyboard-response","113","298900","0.0-7.0-7.11","","","test","rightarrow","1","1","FALSE","FALSE","true"
"null","<p style=""color: green; font-size:300%;"">correct: $7.50</p>","null","html-keyboard-response","114","300154","0.0-7.0-8.11","","","","","","","","",""
"null","<div style=""font-size:60px;""> </div>","null","html-keyboard-response","115","301709","0.0-7.0-0.12","","","fixation_1","","","","","",""
"null","","null","image-keyboard-response","116","301715","0.0-7.0-1.12","","","test","leftarrow","0","1","FALSE","FALSE",""
"null","<div style=""font-size:60px;""> </div>","null","html-keyboard-response","117","302019","0.0-7.0-2.12","","","fixation_2","","","","","",""
"null","img_4.bmp","null","image-keyboard-response","118","303025","0.0-7.0-3.12","","","img_on","","","","","",""
"null","<div style=""font-size:60px;""> </div>","null","html-keyboard-response","119","303328","0.0-7.0-4.12","","","fixation_3","","","","","",""
"null","","null","html-keyboard-response","120","303334","0.0-7.0-5.12","","","test","leftarrow","0","1","FALSE","FALSE",""
"null","<div style=""font-size:60px;""> </div>","null","html-keyboard-response","121","303635","0.0-7.0-6.12","","","fixation_4","","","","","",""
"3080.5","arrows.png","39","image-keyboard-response","122","306717","0.0-7.0-7.12","","","test","leftarrow","0","1","FALSE","FALSE","false"
"null","<p style=""color: red; font-size:300%;"">incorrect: $0</p>","null","html-keyboard-response","123","307970","0.0-7.0-8.12","","","","","","","","",""
"null","<div style=""font-size:60px;""> </div>","null","html-keyboard-response","124","309024","0.0-7.0-0.13","","","fixation_1","","","","","",""
"null","","null","image-keyboard-response","125","309030","0.0-7.0-1.13","","","test","uparrow","1","1","FALSE","FALSE",""
"null","<div style=""font-size:60px;""> </div>","null","html-keyboard-response","126","309331","0.0-7.0-2.13","","","fixation_2","","","","","",""
"null","img_1.bmp","null","image-keyboard-response","127","310333","0.0-7.0-3.13","","","img_on","","","","","",""
"null","<div style=""font-size:60px;""> </div>","null","html-keyboard-response","128","310635","0.0-7.0-4.13","","","fixation_3","","","","","",""
"null","","null","html-keyboard-response","129","310641","0.0-7.0-5.13","","","test","uparrow","1","1","FALSE","FALSE",""
"null","<div style=""font-size:60px;""> </div>","null","html-keyboard-response","130","310943","0.0-7.0-6.13","","","fixation_4","","","","","",""
"636.5","arrows.png","39","image-keyboard-response","131","311580","0.0-7.0-7.13","","","test","uparrow","1","1","FALSE","FALSE","false"
"null","<p style=""color: red; font-size:300%;"">incorrect: $0</p>","null","html-keyboard-response","132","312832","0.0-7.0-8.13","","","","","","","","",""
"null","<div style=""font-size:60px;""> </div>","null","html-keyboard-response","133","313385","0.0-7.0-0.14","","","fixation_1","","","","","",""
"null","","null","image-keyboard-response","134","313390","0.0-7.0-1.14","","","test","rightarrow","1","1","FALSE","FALSE",""
"null","<div style=""font-size:60px;""> </div>","null","html-keyboard-response","135","313692","0.0-7.0-2.14","","","fixation_2","","","","","",""
"null","img_2.bmp","null","image-keyboard-response","136","314697","0.0-7.0-3.14","","","img_on","","","","","",""
"null","<div style=""font-size:60px;""> </div>","null","html-keyboard-response","137","315000","0.0-7.0-4.14","","","fixation_3","","","","","",""
"null","","null","html-keyboard-response","138","315005","0.0-7.0-5.14","","","test","rightarrow","1","1","FALSE","FALSE",""
"null","<div style=""font-size:60px;""> </div>","null","html-keyboard-response","139","315307","0.0-7.0-6.14","","","fixation_4","","","","","",""
"368.69999999925494","arrows.png","39","image-keyboard-response","140","315676","0.0-7.0-7.14","","","test","rightarrow","1","1","FALSE","FALSE","true"
"null","<p style=""color: green; font-size:300%;"">correct: $7.50</p>","null","html-keyboard-response","141","316931","0.0-7.0-8.14","","","","","","","","",""
"null","<div style=""font-size:60px;""> </div>","null","html-keyboard-response","142","317485","0.0-7.0-0.15","","","fixation_1","","","","","",""
"null","","null","image-keyboard-response","143","317490","0.0-7.0-1.15","","","test","downarrow","0","1","FALSE","FALSE",""
"null","<div style=""font-size:60px;""> </div>","null","html-keyboard-response","144","317792","0.0-7.0-2.15","","","fixation_2","","","","","",""
"null","img_3.bmp","null","image-keyboard-response","145","318795","0.0-7.0-3.15","","","img_on","","","","","",""
"null","<div style=""font-size:60px;""> </div>","null","html-keyboard-response","146","319098","0.0-7.0-4.15","","","fixation_3","","","","","",""
"null","","null","html-keyboard-response","147","319103","0.0-7.0-5.15","","","test","downarrow","0","1","FALSE","FALSE",""
"null","<div style=""font-size:60px;""> </div>","null","html-keyboard-response","148","319404","0.0-7.0-6.15","","","fixation_4","","","","","",""
"319.70000000298023","arrows.png","40","image-keyboard-response","149","319724","0.0-7.0-7.15","","","test","downarrow","0","1","FALSE","FALSE","true"
"null","<p style=""color: green; font-size:300%;"">correct: $2.50</p>","null","html-keyboard-response","150","320979","0.0-7.0-8.15","","","","","","","","",""
"null","<div style=""font-size:60px;""> </div>","null","html-keyboard-response","151","321782","0.0-7.0-0.16","","","fixation_1","","","","","",""
"null","","null","image-keyboard-response","152","321788","0.0-7.0-1.16","","","test","downarrow","0","1","FALSE","FALSE",""
"null","<div style=""font-size:60px;""> </div>","null","html-keyboard-response","153","322089","0.0-7.0-2.16","","","fixation_2","","","","","",""
"null","img_3.bmp","null","image-keyboard-response","154","323092","0.0-7.0-3.16","","","img_on","","","","","",""
"null","<div style=""font-size:60px;""> </div>","null","html-keyboard-response","155","323395","0.0-7.0-4.16","","","fixation_3","","","","","",""
"null","","null","html-keyboard-response","156","323401","0.0-7.0-5.16","","","test","downarrow","0","1","FALSE","FALSE",""
"null","<div style=""font-size:60px;""> </div>","null","html-keyboard-response","157","323703","0.0-7.0-6.16","","","fixation_4","","","","","",""
"268.0999999977648","arrows.png","40","image-keyboard-response","158","323972","0.0-7.0-7.16","","","test","downarrow","0","1","FALSE","FALSE","true"
"null","<p style=""color: green; font-size:300%;"">correct: $2.50</p>","null","html-keyboard-response","159","325224","0.0-7.0-8.16","","","","","","","","",""
"null","<div style=""font-size:60px;""> </div>","null","html-keyboard-response","160","325779","0.0-7.0-0.17","","","fixation_1","","","","","",""
"null","","null","image-keyboard-response","161","325785","0.0-7.0-1.17","","","test","uparrow","1","1","FALSE","FALSE",""
"null","<div style=""font-size:60px;""> </div>","null","html-keyboard-response","162","326087","0.0-7.0-2.17","","","fixation_2","","","","","",""
"null","img_1.bmp","null","image-keyboard-response","163","327090","0.0-7.0-3.17","","","img_on","","","","","",""
"null","<div style=""font-size:60px;""> </div>","null","html-keyboard-response","164","327391","0.0-7.0-4.17","","","fixation_3","","","","","",""
"null","","null","html-keyboard-response","165","327397","0.0-7.0-5.17","","","test","uparrow","1","1","FALSE","FALSE",""
"null","<div style=""font-size:60px;""> </div>","null","html-keyboard-response","166","327698","0.0-7.0-6.17","","","fixation_4","","","","","",""
"809.1999999992549","arrows.png","38","image-keyboard-response","167","328508","0.0-7.0-7.17","","","test","uparrow","1","1","FALSE","FALSE","true"
"null","<p style=""color: green; font-size:300%;"">correct: $7.50</p>","null","html-keyboard-response","168","329762","0.0-7.0-8.17","","","","","","","","",""
"null","<div style=""font-size:60px;""> </div>","null","html-keyboard-response","169","330316","0.0-7.0-0.18","","","fixation_1","","","","","",""
"null","","null","image-keyboard-response","170","330321","0.0-7.0-1.18","","","test","leftarrow","0","1","FALSE","FALSE",""
"null","<div style=""font-size:60px;""> </div>","null","html-keyboard-response","171","330622","0.0-7.0-2.18","","","fixation_2","","","","","",""
"null","img_4.bmp","null","image-keyboard-response","172","331624","0.0-7.0-3.18","","","img_on","","","","","",""
"null","<div style=""font-size:60px;""> </div>","null","html-keyboard-response","173","331934","0.0-7.0-4.18","","","fixation_3","","","","","",""
"null","","null","html-keyboard-response","174","331940","0.0-7.0-5.18","","","test","leftarrow","0","1","FALSE","FALSE",""
"null","<div style=""font-size:60px;""> </div>","null","html-keyboard-response","175","332241","0.0-7.0-6.18","","","fixation_4","","","","","",""
"2570.39999999851","arrows.png","38","image-keyboard-response","176","334813","0.0-7.0-7.18","","","test","leftarrow","0","1","FALSE","FALSE","false"
"null","<p style=""color: red; font-size:300%;"">incorrect: $0</p>","null","html-keyboard-response","177","336067","0.0-7.0-8.18","","","","","","","","",""
"null","<div style=""font-size:60px;""> </div>","null","html-keyboard-response","178","337370","0.0-7.0-0.19","","","fixation_1","","","","","",""
"null","","null","image-keyboard-response","179","337375","0.0-7.0-1.19","","","test","rightarrow","1","1","FALSE","FALSE",""
"null","<div style=""font-size:60px;""> </div>","null","html-keyboard-response","180","337676","0.0-7.0-2.19","","","fixation_2","","","","","",""
"null","img_2.bmp","null","image-keyboard-response","181","338679","0.0-7.0-3.19","","","img_on","","","","","",""
"null","<div style=""font-size:60px;""> </div>","null","html-keyboard-response","182","338980","0.0-7.0-4.19","","","fixation_3","","","","","",""
"null","","null","html-keyboard-response","183","338985","0.0-7.0-5.19","","","test","rightarrow","1","1","FALSE","FALSE",""
"null","<div style=""font-size:60px;""> </div>","null","html-keyboard-response","184","339287","0.0-7.0-6.19","","","fixation_4","","","","","",""
"236","arrows.png","39","image-keyboard-response","185","339524","0.0-7.0-7.19","","","test","rightarrow","1","1","FALSE","FALSE","true"
"null","<p style=""color: green; font-size:300%;"">correct: $7.50</p>","null","html-keyboard-response","186","340777","0.0-7.0-8.19","","","","","","","","",""
"null","<div style=""font-size:60px;""> </div>","null","html-keyboard-response","187","341333","0.0-7.0-0.20","","","fixation_1","","","","","",""
"null","","null","image-keyboard-response","188","341341","0.0-7.0-1.20","","","test","downarrow","0","1","FALSE","FALSE",""
"null","<div style=""font-size:60px;""> </div>","null","html-keyboard-response","189","341651","0.0-7.0-2.20","","","fixation_2","","","","","",""
"null","img_3.bmp","null","image-keyboard-response","190","342652","0.0-7.0-3.20","","","img_on","","","","","",""
"null","<div style=""font-size:60px;""> </div>","null","html-keyboard-response","191","342955","0.0-7.0-4.20","","","fixation_3","","","","","",""
"null","","null","html-keyboard-response","192","342961","0.0-7.0-5.20","","","test","downarrow","0","1","FALSE","FALSE",""
"null","<div style=""font-size:60px;""> </div>","null","html-keyboard-response","193","343263","0.0-7.0-6.20","","","fixation_4","","","","","",""
"444.0999999977648","arrows.png","40","image-keyboard-response","194","343708","0.0-7.0-7.20","","","test","downarrow","0","1","FALSE","FALSE","true"
"null","<p style=""color: green; font-size:300%;"">correct: $2.50</p>","null","html-keyboard-response","195","344961","0.0-7.0-8.20","","","","","","","","",""
"null","<div style=""font-size:60px;""> </div>","null","html-keyboard-response","196","346014","0.0-7.0-0.21","","","fixation_1","","","","","",""
"null","","null","image-keyboard-response","197","346019","0.0-7.0-1.21","","","test","uparrow","1","1","FALSE","FALSE",""
"null","<div style=""font-size:60px;""> </div>","null","html-keyboard-response","198","346321","0.0-7.0-2.21","","","fixation_2","","","","","",""
"null","img_1.bmp","null","image-keyboard-response","199","347322","0.0-7.0-3.21","","","img_on","","","","","",""
"null","<div style=""font-size:60px;""> </div>","null","html-keyboard-response","200","347623","0.0-7.0-4.21","","","fixation_3","","","","","",""
"null","","null","html-keyboard-response","201","347629","0.0-7.0-5.21","","","test","uparrow","1","1","FALSE","FALSE",""
"null","<div style=""font-size:60px;""> </div>","null","html-keyboard-response","202","347930","0.0-7.0-6.21","","","fixation_4","","","","","",""
"242.69999999925494","arrows.png","38","image-keyboard-response","203","348174","0.0-7.0-7.21","","","test","uparrow","1","1","FALSE","FALSE","true"
"null","<p style=""color: green; font-size:300%;"">correct: $7.50</p>","null","html-keyboard-response","204","349426","0.0-7.0-8.21","","","","","","","","",""
"null","<div style=""font-size:60px;""> </div>","null","html-keyboard-response","205","349984","0.0-7.0-0.22","","","fixation_1","","","","","",""
"null","","null","image-keyboard-response","206","349990","0.0-7.0-1.22","","","test","rightarrow","1","1","FALSE","FALSE",""
"null","<div style=""font-size:60px;""> </div>","null","html-keyboard-response","207","350293","0.0-7.0-2.22","","","fixation_2","","","","","",""
"null","img_2.bmp","null","image-keyboard-response","208","351295","0.0-7.0-3.22","","","img_on","","","","","",""
"null","<div style=""font-size:60px;""> </div>","null","html-keyboard-response","209","351599","0.0-7.0-4.22","","","fixation_3","","","","","",""
"null","","null","html-keyboard-response","210","351604","0.0-7.0-5.22","","","test","rightarrow","1","1","FALSE","FALSE",""
"null","<div style=""font-size:60px;""> </div>","null","html-keyboard-response","211","351906","0.0-7.0-6.22","","","fixation_4","","","","","",""
"320.1000000014901","arrows.png","39","image-keyboard-response","212","352227","0.0-7.0-7.22","","","test","rightarrow","1","1","FALSE","FALSE","true"
"null","<p style=""color: green; font-size:300%;"">correct: $7.50</p>","null","html-keyboard-response","213","353480","0.0-7.0-8.22","","","","","","","","",""
"null","<div style=""font-size:60px;""> </div>","null","html-keyboard-response","214","354033","0.0-7.0-0.23","","","fixation_1","","","","","",""
"null","","null","image-keyboard-response","215","354039","0.0-7.0-1.23","","","test","leftarrow","0","1","FALSE","FALSE",""
"null","<div style=""font-size:60px;""> </div>","null","html-keyboard-response","216","354341","0.0-7.0-2.23","","","fixation_2","","","","","",""
"null","img_4.bmp","null","image-keyboard-response","217","355343","0.0-7.0-3.23","","","img_on","","","","","",""
"null","<div style=""font-size:60px;""> </div>","null","html-keyboard-response","218","355644","0.0-7.0-4.23","","","fixation_3","","","","","",""
"null","","null","html-keyboard-response","219","355650","0.0-7.0-5.23","","","test","leftarrow","0","1","FALSE","FALSE",""
"null","<div style=""font-size:60px;""> </div>","null","html-keyboard-response","220","355952","0.0-7.0-6.23","","","fixation_4","","","","","",""
"1002.9000000022352","arrows.png","37","image-keyboard-response","221","356956","0.0-7.0-7.23","","","test","leftarrow","0","1","FALSE","FALSE","true"
"null","<p style=""color: green; font-size:300%;"">correct: $2.50</p>","null","html-keyboard-response","222","358209","0.0-7.0-8.23","","","","","","","","",""
"null","<div style=""font-size:60px;""> </div>","null","html-keyboard-response","223","359014","0.0-7.0-0.24","","","fixation_1","","","","","",""
"null","","null","image-keyboard-response","224","359020","0.0-7.0-1.24","","","test","leftarrow","1","2","FALSE","FALSE",""
"null","<div style=""font-size:60px;""> </div>","null","html-keyboard-response","225","359321","0.0-7.0-2.24","","","fixation_2","","","","","",""
"null","img_7.bmp","null","image-keyboard-response","226","360323","0.0-7.0-3.24","","","img_on","","","","","",""
"null","<div style=""font-size:60px;""> </div>","null","html-keyboard-response","227","360624","0.0-7.0-4.24","","","fixation_3","","","","","",""
"null","","null","html-keyboard-response","228","360629","0.0-7.0-5.24","","","test","leftarrow","1","2","FALSE","FALSE",""
"null","<div style=""font-size:60px;""> </div>","null","html-keyboard-response","229","360932","0.0-7.0-6.24","","","fixation_4","","","","","",""
"2647","arrows.png","37","image-keyboard-response","230","363580","0.0-7.0-7.24","","","test","leftarrow","1","2","FALSE","FALSE","true"
"null","<p style=""color: green; font-size:300%;"">correct: $7.50</p>","null","html-keyboard-response","231","364833","0.0-7.0-8.24","","","","","","","","",""
"null","<div style=""font-size:60px;""> </div>","null","html-keyboard-response","232","366137","0.0-7.0-0.25","","","fixation_1","","","","","",""
"null","","null","image-keyboard-response","233","366144","0.0-7.0-1.25","","","test","downarrow","1","2","FALSE","FALSE",""
"null","<div style=""font-size:60px;""> </div>","null","html-keyboard-response","234","366445","0.0-7.0-2.25","","","fixation_2","","","","","",""
"null","img_6.bmp","null","image-keyboard-response","235","367448","0.0-7.0-3.25","","","img_on","","","","","",""
"null","<div style=""font-size:60px;""> </div>","null","html-keyboard-response","236","367750","0.0-7.0-4.25","","","fixation_3","","","","","",""
"null","","null","html-keyboard-response","237","367756","0.0-7.0-5.25","","","test","downarrow","1","2","FALSE","FALSE",""
"null","<div style=""font-size:60px;""> </div>","null","html-keyboard-response","238","368057","0.0-7.0-6.25","","","fixation_4","","","","","",""
"857","arrows.png","37","image-keyboard-response","239","368915","0.0-7.0-7.25","","","test","downarrow","1","2","FALSE","FALSE","false"
"null","<p style=""color: red; font-size:300%;"">incorrect: $0</p>","null","html-keyboard-response","240","370167","0.0-7.0-8.25","","","","","","","","",""
"null","<div style=""font-size:60px;""> </div>","null","html-keyboard-response","241","371471","0.0-7.0-0.26","","","fixation_1","","","","","",""
"null","","null","image-keyboard-response","242","371480","0.0-7.0-1.26","","","test","uparrow","0","2","FALSE","FALSE",""
"null","<div style=""font-size:60px;""> </div>","null","html-keyboard-response","243","371785","0.0-7.0-2.26","","","fixation_2","","","","","",""
"null","img_8.bmp","null","image-keyboard-response","244","372787","0.0-7.0-3.26","","","img_on","","","","","",""
"null","<div style=""font-size:60px;""> </div>","null","html-keyboard-response","245","373089","0.0-7.0-4.26","","","fixation_3","","","","","",""
"null","","null","html-keyboard-response","246","373099","0.0-7.0-5.26","","","test","uparrow","0","2","FALSE","FALSE",""
"null","<div style=""font-size:60px;""> </div>","null","html-keyboard-response","247","373400","0.0-7.0-6.26","","","fixation_4","","","","","",""
"563","arrows.png","37","image-keyboard-response","248","373964","0.0-7.0-7.26","","","test","uparrow","0","2","FALSE","FALSE","false"
"null","<p style=""color: red; font-size:300%;"">incorrect: $0</p>","null","html-keyboard-response","249","375223","0.0-7.0-8.26","","","","","","","","",""
"null","<div style=""font-size:60px;""> </div>","null","html-keyboard-response","250","376276","0.0-7.0-0.27","","","fixation_1","","","","","",""
"null","","null","image-keyboard-response","251","376283","0.0-7.0-1.27","","","test","rightarrow","0","2","FALSE","FALSE",""
"null","<div style=""font-size:60px;""> </div>","null","html-keyboard-response","252","376607","0.0-7.0-2.27","","","fixation_2","","","","","",""
"null","img_5.bmp","null","image-keyboard-response","253","377608","0.0-7.0-3.27","","","img_on","","","","","",""
"null","<div style=""font-size:60px;""> </div>","null","html-keyboard-response","254","377912","0.0-7.0-4.27","","","fixation_3","","","","","",""
"null","","null","html-keyboard-response","255","377918","0.0-7.0-5.27","","","test","rightarrow","0","2","FALSE","FALSE",""
"null","<div style=""font-size:60px;""> </div>","null","html-keyboard-response","256","378219","0.0-7.0-6.27","","","fixation_4","","","","","",""
"1767.8999999985099","arrows.png","40","image-keyboard-response","257","379988","0.0-7.0-7.27","","","test","rightarrow","0","2","FALSE","FALSE","false"
"null","<p style=""color: red; font-size:300%;"">incorrect: $0</p>","null","html-keyboard-response","258","381240","0.0-7.0-8.27","","","","","","","","",""
"null","<div style=""font-size:60px;""> </div>","null","html-keyboard-response","259","382545","0.0-7.0-0.28","","","fixation_1","","","","","",""
"null","","null","image-keyboard-response","260","382551","0.0-7.0-1.28","","","test","rightarrow","0","2","FALSE","FALSE",""
"null","<div style=""font-size:60px;""> </div>","null","html-keyboard-response","261","382853","0.0-7.0-2.28","","","fixation_2","","","","","",""
"null","img_5.bmp","null","image-keyboard-response","262","383855","0.0-7.0-3.28","","","img_on","","","","","",""
"null","<div style=""font-size:60px;""> </div>","null","html-keyboard-response","263","384157","0.0-7.0-4.28","","","fixation_3","","","","","",""
"null","","null","html-keyboard-response","264","384163","0.0-7.0-5.28","","","test","rightarrow","0","2","FALSE","FALSE",""
"null","<div style=""font-size:60px;""> </div>","null","html-keyboard-response","265","384465","0.0-7.0-6.28","","","fixation_4","","","","","",""
"288.30000000074506","arrows.png","40","image-keyboard-response","266","384756","0.0-7.0-7.28","","","test","rightarrow","0","2","FALSE","FALSE","false"
"null","<p style=""color: red; font-size:300%;"">incorrect: $0</p>","null","html-keyboard-response","267","386009","0.0-7.0-8.28","","","","","","","","",""
"null","<div style=""font-size:60px;""> </div>","null","html-keyboard-response","268","387563","0.0-7.0-0.29","","","fixation_1","","","","","",""
"null","","null","image-keyboard-response","269","387567","0.0-7.0-1.29","","","test","downarrow","1","2","FALSE","FALSE",""
"null","<div style=""font-size:60px;""> </div>","null","html-keyboard-response","270","387869","0.0-7.0-2.29","","","fixation_2","","","","","",""
"null","img_6.bmp","null","image-keyboard-response","271","388871","0.0-7.0-3.29","","","img_on","","","","","",""
"null","<div style=""font-size:60px;""> </div>","null","html-keyboard-response","272","389174","0.0-7.0-4.29","","","fixation_3","","","","","",""
"null","","null","html-keyboard-response","273","389180","0.0-7.0-5.29","","","test","downarrow","1","2","FALSE","FALSE",""
"null","<div style=""font-size:60px;""> </div>","null","html-keyboard-response","274","389481","0.0-7.0-6.29","","","fixation_4","","","","","",""
"320.9000000022352","arrows.png","39","image-keyboard-response","275","389803","0.0-7.0-7.29","","","test","downarrow","1","2","FALSE","FALSE","false"
"null","<p style=""color: red; font-size:300%;"">incorrect: $0</p>","null","html-keyboard-response","276","391063","0.0-7.0-8.29","","","","","","","","",""
"null","<div style=""font-size:60px;""> </div>","null","html-keyboard-response","277","392618","0.0-7.0-0.30","","","fixation_1","","","","","",""
"null","","null","image-keyboard-response","278","392624","0.0-7.0-1.30","","","test","leftarrow","1","2","FALSE","FALSE",""
"null","<div style=""font-size:60px;""> </div>","null","html-keyboard-response","279","392926","0.0-7.0-2.30","","","fixation_2","","","","","",""
"null","img_7.bmp","null","image-keyboard-response","280","393928","0.0-7.0-3.30","","","img_on","","","","","",""
"null","<div style=""font-size:60px;""> </div>","null","html-keyboard-response","281","394231","0.0-7.0-4.30","","","fixation_3","","","","","",""
"null","","null","html-keyboard-response","282","394236","0.0-7.0-5.30","","","test","leftarrow","1","2","FALSE","FALSE",""
"null","<div style=""font-size:60px;""> </div>","null","html-keyboard-response","283","394537","0.0-7.0-6.30","","","fixation_4","","","","","",""
"2674.199999999255","arrows.png","39","image-keyboard-response","284","397212","0.0-7.0-7.30","","","test","leftarrow","1","2","FALSE","FALSE","false"
"null","<p style=""color: red; font-size:300%;"">incorrect: $0</p>","null","html-keyboard-response","285","398465","0.0-7.0-8.30","","","","","","","","",""
"null","<div style=""font-size:60px;""> </div>","null","html-keyboard-response","286","399519","0.0-7.0-0.31","","","fixation_1","","","","","",""
"null","","null","image-keyboard-response","287","399525","0.0-7.0-1.31","","","test","uparrow","0","2","FALSE","FALSE",""
"null","<div style=""font-size:60px;""> </div>","null","html-keyboard-response","288","399826","0.0-7.0-2.31","","","fixation_2","","","","","",""
"null","img_8.bmp","null","image-keyboard-response","289","400836","0.0-7.0-3.31","","","img_on","","","","","",""
"null","<div style=""font-size:60px;""> </div>","null","html-keyboard-response","290","401139","0.0-7.0-4.31","","","fixation_3","","","","","",""
"null","","null","html-keyboard-response","291","401144","0.0-7.0-5.31","","","test","uparrow","0","2","FALSE","FALSE",""
"null","<div style=""font-size:60px;""> </div>","null","html-keyboard-response","292","401445","0.0-7.0-6.31","","","fixation_4","","","","","",""
"2549.2000000029802","arrows.png","39","image-keyboard-response","293","403995","0.0-7.0-7.31","","","test","uparrow","0","2","FALSE","FALSE","false"
"null","<p style=""color: red; font-size:300%;"">incorrect: $0</p>","null","html-keyboard-response","294","405248","0.0-7.0-8.31","","","","","","","","",""
"null","<div style=""font-size:60px;""> </div>","null","html-keyboard-response","295","406802","0.0-7.0-0.32","","","fixation_1","","","","","",""
"null","","null","image-keyboard-response","296","406809","0.0-7.0-1.32","","","test","uparrow","0","2","FALSE","FALSE",""
"null","<div style=""font-size:60px;""> </div>","null","html-keyboard-response","297","407111","0.0-7.0-2.32","","","fixation_2","","","","","",""
"null","img_8.bmp","null","image-keyboard-response","298","408114","0.0-7.0-3.32","","","img_on","","","","","",""
"null","<div style=""font-size:60px;""> </div>","null","html-keyboard-response","299","408416","0.0-7.0-4.32","","","fixation_3","","","","","",""
"null","","null","html-keyboard-response","300","408423","0.0-7.0-5.32","","","test","uparrow","0","2","FALSE","FALSE",""
"null","<div style=""font-size:60px;""> </div>","null","html-keyboard-response","301","408725","0.0-7.0-6.32","","","fixation_4","","","","","",""
"1174.5999999977648","arrows.png","40","image-keyboard-response","302","409900","0.0-7.0-7.32","","","test","uparrow","0","2","FALSE","FALSE","false"
"null","<p style=""color: red; font-size:300%;"">incorrect: $0</p>","null","html-keyboard-response","303","411166","0.0-7.0-8.32","","","","","","","","",""
"null","<div style=""font-size:60px;""> </div>","null","html-keyboard-response","304","412720","0.0-7.0-0.33","","","fixation_1","","","","","",""
"null","","null","image-keyboard-response","305","412726","0.0-7.0-1.33","","","test","rightarrow","0","2","FALSE","FALSE",""
"null","<div style=""font-size:60px;""> </div>","null","html-keyboard-response","306","413028","0.0-7.0-2.33","","","fixation_2","","","","","",""
"null","img_5.bmp","null","image-keyboard-response","307","414030","0.0-7.0-3.33","","","img_on","","","","","",""
"null","<div style=""font-size:60px;""> </div>","null","html-keyboard-response","308","414332","0.0-7.0-4.33","","","fixation_3","","","","","",""
"null","","null","html-keyboard-response","309","414337","0.0-7.0-5.33","","","test","rightarrow","0","2","FALSE","FALSE",""
"null","<div style=""font-size:60px;""> </div>","null","html-keyboard-response","310","414639","0.0-7.0-6.33","","","fixation_4","","","","","",""
"1795","arrows.png","38","image-keyboard-response","311","416435","0.0-7.0-7.33","","","test","rightarrow","0","2","FALSE","FALSE","false"
"null","<p style=""color: red; font-size:300%;"">incorrect: $0</p>","null","html-keyboard-response","312","417688","0.0-7.0-8.33","","","","","","","","",""
"null","<div style=""font-size:60px;""> </div>","null","html-keyboard-response","313","418491","0.0-7.0-0.34","","","fixation_1","","","","","",""
"null","","null","image-keyboard-response","314","418497","0.0-7.0-1.34","","","test","downarrow","1","2","FALSE","FALSE",""
"null","<div style=""font-size:60px;""> </div>","null","html-keyboard-response","315","418799","0.0-7.0-2.34","","","fixation_2","","","","","",""
"null","img_6.bmp","null","image-keyboard-response","316","419801","0.0-7.0-3.34","","","img_on","","","","","",""
"null","<div style=""font-size:60px;""> </div>","null","html-keyboard-response","317","420103","0.0-7.0-4.34","","","fixation_3","","","","","",""
"null","","null","html-keyboard-response","318","420109","0.0-7.0-5.34","","","test","downarrow","1","2","FALSE","FALSE",""
"null","<div style=""font-size:60px;""> </div>","null","html-keyboard-response","319","420411","0.0-7.0-6.34","","","fixation_4","","","","","",""
"2543.900000002235","arrows.png","38","image-keyboard-response","320","422956","0.0-7.0-7.34","","","test","downarrow","1","2","FALSE","FALSE","false"
"null","<p style=""color: red; font-size:300%;"">incorrect: $0</p>","null","html-keyboard-response","321","424210","0.0-7.0-8.34","","","","","","","","",""
"null","<div style=""font-size:60px;""> </div>","null","html-keyboard-response","322","425263","0.0-7.0-0.35","","","fixation_1","","","","","",""
"null","","null","image-keyboard-response","323","425269","0.0-7.0-1.35","","","test","leftarrow","1","2","FALSE","FALSE",""
"null","<div style=""font-size:60px;""> </div>","null","html-keyboard-response","324","425570","0.0-7.0-2.35","","","fixation_2","","","","","",""
"null","img_7.bmp","null","image-keyboard-response","325","426572","0.0-7.0-3.35","","","img_on","","","","","",""
"null","<div style=""font-size:60px;""> </div>","null","html-keyboard-response","326","426873","0.0-7.0-4.35","","","fixation_3","","","","","",""
"null","","null","html-keyboard-response","327","426879","0.0-7.0-5.35","","","test","leftarrow","1","2","FALSE","FALSE",""
"null","<div style=""font-size:60px;""> </div>","null","html-keyboard-response","328","427181","0.0-7.0-6.35","","","fixation_4","","","","","",""
"921.6999999992549","arrows.png","38","image-keyboard-response","329","428107","0.0-7.0-7.35","","","test","leftarrow","1","2","FALSE","FALSE","false"
"null","<p style=""color: red; font-size:300%;"">incorrect: $0</p>","null","html-keyboard-response","330","429360","0.0-7.0-8.35","","","","","","","","",""
"null","<div style=""font-size:60px;""> </div>","null","html-keyboard-response","331","430666","0.0-7.0-0.36","","","fixation_1","","","","","",""
"null","","null","image-keyboard-response","332","430672","0.0-7.0-1.36","","","test","rightarrow","0","2","FALSE","FALSE",""
"null","<div style=""font-size:60px;""> </div>","null","html-keyboard-response","333","430974","0.0-7.0-2.36","","","fixation_2","","","","","",""
"null","img_5.bmp","null","image-keyboard-response","334","431978","0.0-7.0-3.36","","","img_on","","","","","",""
"null","<div style=""font-size:60px;""> </div>","null","html-keyboard-response","335","432280","0.0-7.0-4.36","","","fixation_3","","","","","",""
"null","","null","html-keyboard-response","336","432286","0.0-7.0-5.36","","","test","rightarrow","0","2","FALSE","FALSE",""
"null","<div style=""font-size:60px;""> </div>","null","html-keyboard-response","337","432588","0.0-7.0-6.36","","","fixation_4","","","","","",""
"1165.8999999985099","arrows.png","40","image-keyboard-response","338","433756","0.0-7.0-7.36","","","test","rightarrow","0","2","FALSE","FALSE","false"
"null","<p style=""color: red; font-size:300%;"">incorrect: $0</p>","null","html-keyboard-response","339","435008","0.0-7.0-8.36","","","","","","","","",""
"null","<div style=""font-size:60px;""> </div>","null","html-keyboard-response","340","436561","0.0-7.0-0.37","","","fixation_1","","","","","",""
"null","","null","image-keyboard-response","341","436567","0.0-7.0-1.37","","","test","uparrow","0","2","FALSE","FALSE",""
"null","<div style=""font-size:60px;""> </div>","null","html-keyboard-response","342","436869","0.0-7.0-2.37","","","fixation_2","","","","","",""
"null","img_8.bmp","null","image-keyboard-response","343","437871","0.0-7.0-3.37","","","img_on","","","","","",""
"null","<div style=""font-size:60px;""> </div>","null","html-keyboard-response","344","438173","0.0-7.0-4.37","","","fixation_3","","","","","",""
"null","","null","html-keyboard-response","345","438179","0.0-7.0-5.37","","","test","uparrow","0","2","FALSE","FALSE",""
"null","<div style=""font-size:60px;""> </div>","null","html-keyboard-response","346","438481","0.0-7.0-6.37","","","fixation_4","","","","","",""
"1760.9000000022352","arrows.png","37","image-keyboard-response","347","440243","0.0-7.0-7.37","","","test","uparrow","0","2","FALSE","FALSE","false"
"null","<p style=""color: red; font-size:300%;"">incorrect: $0</p>","null","html-keyboard-response","348","441495","0.0-7.0-8.37","","","","","","","","",""
"null","<div style=""font-size:60px;""> </div>","null","html-keyboard-response","349","442301","0.0-7.0-0.38","","","fixation_1","","","","","",""
"null","","null","image-keyboard-response","350","442307","0.0-7.0-1.38","","","test","leftarrow","1","2","FALSE","FALSE",""
"null","<div style=""font-size:60px;""> </div>","null","html-keyboard-response","351","442610","0.0-7.0-2.38","","","fixation_2","","","","","",""
"null","img_7.bmp","null","image-keyboard-response","352","443612","0.0-7.0-3.38","","","img_on","","","","","",""
"null","<div style=""font-size:60px;""> </div>","null","html-keyboard-response","353","443913","0.0-7.0-4.38","","","fixation_3","","","","","",""
"null","","null","html-keyboard-response","354","443918","0.0-7.0-5.38","","","test","leftarrow","1","2","FALSE","FALSE",""
"null","<div style=""font-size:60px;""> </div>","null","html-keyboard-response","355","444219","0.0-7.0-6.38","","","fixation_4","","","","","",""
"3919.199999999255","arrows.png","37","image-keyboard-response","356","448139","0.0-7.0-7.38","","","test","leftarrow","1","2","FALSE","FALSE","true"
"null","<p style=""color: green; font-size:300%;"">correct: $7.50</p>","null","html-keyboard-response","357","449393","0.0-7.0-8.38","","","","","","","","",""
"null","<div style=""font-size:60px;""> </div>","null","html-keyboard-response","358","449945","0.0-7.0-0.39","","","fixation_1","","","","","",""
"null","","null","image-keyboard-response","359","449952","0.0-7.0-1.39","","","test","downarrow","1","2","FALSE","FALSE",""
"null","<div style=""font-size:60px;""> </div>","null","html-keyboard-response","360","450254","0.0-7.0-2.39","","","fixation_2","","","","","",""
"null","img_6.bmp","null","image-keyboard-response","361","451256","0.0-7.0-3.39","","","img_on","","","","","",""
"null","<div style=""font-size:60px;""> </div>","null","html-keyboard-response","362","451559","0.0-7.0-4.39","","","fixation_3","","","","","",""
"null","","null","html-keyboard-response","363","451565","0.0-7.0-5.39","","","test","downarrow","1","2","FALSE","FALSE",""
"null","<div style=""font-size:60px;""> </div>","null","html-keyboard-response","364","451867","0.0-7.0-6.39","","","fixation_4","","","","","",""
"2823.10000000149","arrows.png","38","image-keyboard-response","365","454691","0.0-7.0-7.39","","","test","downarrow","1","2","FALSE","FALSE","false"
"null","<p style=""color: red; font-size:300%;"">incorrect: $0</p>","null","html-keyboard-response","366","455945","0.0-7.0-8.39","","","","","","","","",""
"null","<div style=""font-size:60px;""> </div>","null","html-keyboard-response","367","457497","0.0-7.0-0.40","","","fixation_1","","","","","",""
"null","","null","image-keyboard-response","368","457503","0.0-7.0-1.40","","","test","uparrow","0","2","FALSE","FALSE",""
"null","<div style=""font-size:60px;""> </div>","null","html-keyboard-response","369","457805","0.0-7.0-2.40","","","fixation_2","","","","","",""
"null","img_8.bmp","null","image-keyboard-response","370","458807","0.0-7.0-3.40","","","img_on","","","","","",""
"null","<div style=""font-size:60px;""> </div>","null","html-keyboard-response","371","459109","0.0-7.0-4.40","","","fixation_3","","","","","",""
"null","","null","html-keyboard-response","372","459115","0.0-7.0-5.40","","","test","uparrow","0","2","FALSE","FALSE",""
"null","<div style=""font-size:60px;""> </div>","null","html-keyboard-response","373","459417","0.0-7.0-6.40","","","fixation_4","","","","","",""
"1937.699999999255","arrows.png","38","image-keyboard-response","374","461355","0.0-7.0-7.40","","","test","uparrow","0","2","FALSE","FALSE","true"
"null","<p style=""color: green; font-size:300%;"">correct: $2.50</p>","null","html-keyboard-response","375","462608","0.0-7.0-8.40","","","","","","","","",""
"null","<div style=""font-size:60px;""> </div>","null","html-keyboard-response","376","463160","0.0-7.0-0.41","","","fixation_1","","","","","",""
"null","","null","image-keyboard-response","377","463166","0.0-7.0-1.41","","","test","downarrow","1","2","FALSE","FALSE",""
"null","<div style=""font-size:60px;""> </div>","null","html-keyboard-response","378","463469","0.0-7.0-2.41","","","fixation_2","","","","","",""
"null","img_6.bmp","null","image-keyboard-response","379","464473","0.0-7.0-3.41","","","img_on","","","","","",""
"null","<div style=""font-size:60px;""> </div>","null","html-keyboard-response","380","464775","0.0-7.0-4.41","","","fixation_3","","","","","",""
"null","","null","html-keyboard-response","381","464781","0.0-7.0-5.41","","","test","downarrow","1","2","FALSE","FALSE",""
"null","<div style=""font-size:60px;""> </div>","null","html-keyboard-response","382","465083","0.0-7.0-6.41","","","fixation_4","","","","","",""
"2063.599999997765","arrows.png","40","image-keyboard-response","383","467147","0.0-7.0-7.41","","","test","downarrow","1","2","FALSE","FALSE","true"
"null","<p style=""color: green; font-size:300%;"">correct: $7.50</p>","null","html-keyboard-response","384","468400","0.0-7.0-8.41","","","","","","","","",""
"null","<div style=""font-size:60px;""> </div>","null","html-keyboard-response","385","469703","0.0-7.0-0.42","","","fixation_1","","","","","",""
"null","","null","image-keyboard-response","386","469713","0.0-7.0-1.42","","","test","rightarrow","0","2","FALSE","FALSE",""
"null","<div style=""font-size:60px;""> </div>","null","html-keyboard-response","387","470015","0.0-7.0-2.42","","","fixation_2","","","","","",""
"null","img_5.bmp","null","image-keyboard-response","388","471018","0.0-7.0-3.42","","","img_on","","","","","",""
"null","<div style=""font-size:60px;""> </div>","null","html-keyboard-response","389","471320","0.0-7.0-4.42","","","fixation_3","","","","","",""
"null","","null","html-keyboard-response","390","471325","0.0-7.0-5.42","","","test","rightarrow","0","2","FALSE","FALSE",""
"null","<div style=""font-size:60px;""> </div>","null","html-keyboard-response","391","471631","0.0-7.0-6.42","","","fixation_4","","","","","",""
"3147.900000002235","arrows.png","39","image-keyboard-response","392","474779","0.0-7.0-7.42","","","test","rightarrow","0","2","FALSE","FALSE","true"
"null","<p style=""color: green; font-size:300%;"">correct: $2.50</p>","null","html-keyboard-response","393","476034","0.0-7.0-8.42","","","","","","","","",""
"null","<div style=""font-size:60px;""> </div>","null","html-keyboard-response","394","477587","0.0-7.0-0.43","","","fixation_1","","","","","",""
"null","","null","image-keyboard-response","395","477592","0.0-7.0-1.43","","","test","leftarrow","1","2","FALSE","FALSE",""
"null","<div style=""font-size:60px;""> </div>","null","html-keyboard-response","396","477895","0.0-7.0-2.43","","","fixation_2","","","","","",""
"null","img_7.bmp","null","image-keyboard-response","397","478898","0.0-7.0-3.43","","","img_on","","","","","",""
"null","<div style=""font-size:60px;""> </div>","null","html-keyboard-response","398","479200","0.0-7.0-4.43","","","fixation_3","","","","","",""
"null","","null","html-keyboard-response","399","479206","0.0-7.0-5.43","","","test","leftarrow","1","2","FALSE","FALSE",""
"null","<div style=""font-size:60px;""> </div>","null","html-keyboard-response","400","479508","0.0-7.0-6.43","","","fixation_4","","","","","",""
"566.1999999992549","arrows.png","37","image-keyboard-response","401","480075","0.0-7.0-7.43","","","test","leftarrow","1","2","FALSE","FALSE","true"
"null","<p style=""color: green; font-size:300%;"">correct: $7.50</p>","null","html-keyboard-response","402","481329","0.0-7.0-8.43","","","","","","","","",""
"null","<div style=""font-size:60px;""> </div>","null","html-keyboard-response","403","482633","0.0-7.0-0.44","","","fixation_1","","","","","",""
"null","","null","image-keyboard-response","404","482640","0.0-7.0-1.44","","","test","rightarrow","0","2","FALSE","FALSE",""
"null","<div style=""font-size:60px;""> </div>","null","html-keyboard-response","405","482942","0.0-7.0-2.44","","","fixation_2","","","","","",""
"null","img_5.bmp","null","image-keyboard-response","406","483944","0.0-7.0-3.44","","","img_on","","","","","",""
"null","<div style=""font-size:60px;""> </div>","null","html-keyboard-response","407","484245","0.0-7.0-4.44","","","fixation_3","","","","","",""
"null","","null","html-keyboard-response","408","484250","0.0-7.0-5.44","","","test","rightarrow","0","2","FALSE","FALSE",""
"null","<div style=""font-size:60px;""> </div>","null","html-keyboard-response","409","484551","0.0-7.0-6.44","","","fixation_4","","","","","",""
"1907.1000000014901","arrows.png","39","image-keyboard-response","410","486460","0.0-7.0-7.44","","","test","rightarrow","0","2","FALSE","FALSE","true"
"null","<p style=""color: green; font-size:300%;"">correct: $2.50</p>","null","html-keyboard-response","411","487713","0.0-7.0-8.44","","","","","","","","",""
"null","<div style=""font-size:60px;""> </div>","null","html-keyboard-response","412","488266","0.0-7.0-0.45","","","fixation_1","","","","","",""
"null","","null","image-keyboard-response","413","488272","0.0-7.0-1.45","","","test","downarrow","1","2","FALSE","FALSE",""
"null","<div style=""font-size:60px;""> </div>","null","html-keyboard-response","414","488573","0.0-7.0-2.45","","","fixation_2","","","","","",""
"null","img_6.bmp","null","image-keyboard-response","415","489574","0.0-7.0-3.45","","","img_on","","","","","",""
"null","<div style=""font-size:60px;""> </div>","null","html-keyboard-response","416","489877","0.0-7.0-4.45","","","fixation_3","","","","","",""
"null","","null","html-keyboard-response","417","489886","0.0-7.0-5.45","","","test","downarrow","1","2","FALSE","FALSE",""
"null","<div style=""font-size:60px;""> </div>","null","html-keyboard-response","418","490188","0.0-7.0-6.45","","","fixation_4","","","","","",""
"782","arrows.png","40","image-keyboard-response","419","490971","0.0-7.0-7.45","","","test","downarrow","1","2","FALSE","FALSE","true"
"null","<p style=""color: green; font-size:300%;"">correct: $7.50</p>","null","html-keyboard-response","420","492223","0.0-7.0-8.45","","","","","","","","",""
"null","<div style=""font-size:60px;""> </div>","null","html-keyboard-response","421","493777","0.0-7.0-0.46","","","fixation_1","","","","","",""
"null","","null","image-keyboard-response","422","493783","0.0-7.0-1.46","","","test","leftarrow","1","2","FALSE","FALSE",""
"null","<div style=""font-size:60px;""> </div>","null","html-keyboard-response","423","494084","0.0-7.0-2.46","","","fixation_2","","","","","",""
"null","img_7.bmp","null","image-keyboard-response","424","495086","0.0-7.0-3.46","","","img_on","","","","","",""
"null","<div style=""font-size:60px;""> </div>","null","html-keyboard-response","425","495387","0.0-7.0-4.46","","","fixation_3","","","","","",""
"null","","null","html-keyboard-response","426","495392","0.0-7.0-5.46","","","test","leftarrow","1","2","FALSE","FALSE",""
"null","<div style=""font-size:60px;""> </div>","null","html-keyboard-response","427","495695","0.0-7.0-6.46","","","fixation_4","","","","","",""
"2691.699999999255","arrows.png","37","image-keyboard-response","428","498388","0.0-7.0-7.46","","","test","leftarrow","1","2","FALSE","FALSE","true"
"null","<p style=""color: green; font-size:300%;"">correct: $7.50</p>","null","html-keyboard-response","429","499640","0.0-7.0-8.46","","","","","","","","",""
"null","<div style=""font-size:60px;""> </div>","null","html-keyboard-response","430","500192","0.0-7.0-0.47","","","fixation_1","","","","","",""
"null","","null","image-keyboard-response","431","500213","0.0-7.0-1.47","","","test","uparrow","0","2","FALSE","FALSE",""
"null","<div style=""font-size:60px;""> </div>","null","html-keyboard-response","432","500515","0.0-7.0-2.47","","","fixation_2","","","","","",""
"null","img_8.bmp","null","image-keyboard-response","433","501518","0.0-7.0-3.47","","","img_on","","","","","",""
"null","<div style=""font-size:60px;""> </div>","null","html-keyboard-response","434","501820","0.0-7.0-4.47","","","fixation_3","","","","","",""
"null","","null","html-keyboard-response","435","501826","0.0-7.0-5.47","","","test","uparrow","0","2","FALSE","FALSE",""
"null","<div style=""font-size:60px;""> </div>","null","html-keyboard-response","436","502128","0.0-7.0-6.47","","","fixation_4","","","","","",""
"3698.199999999255","arrows.png","40","image-keyboard-response","437","505827","0.0-7.0-7.47","","","test","uparrow","0","2","FALSE","FALSE","false"
"null","<p style=""color: red; font-size:300%;"">incorrect: $0</p>","null","html-keyboard-response","438","507081","0.0-7.0-8.47","","","","","","","","",""
"null","<div style=""font-size:60px;""> </div>","null","html-keyboard-response","439","508134","0.0-7.0-0.48","","","fixation_1","","","","","",""
"null","","null","image-keyboard-response","440","508140","0.0-7.0-1.48","","","test","downarrow","0","1","FALSE","FALSE",""
"null","<div style=""font-size:60px;""> </div>","null","html-keyboard-response","441","508441","0.0-7.0-2.48","","","fixation_2","","","","","",""
"null","img_3.bmp","null","image-keyboard-response","442","509443","0.0-7.0-3.48","","","img_on","","","","","",""
"null","<div style=""font-size:60px;""> </div>","null","html-keyboard-response","443","509745","0.0-7.0-4.48","","","fixation_3","","","","","",""
"null","","null","html-keyboard-response","444","509750","0.0-7.0-5.48","","","test","downarrow","0","1","FALSE","FALSE",""
"null","<div style=""font-size:60px;""> </div>","null","html-keyboard-response","445","510051","0.0-7.0-6.48","","","fixation_4","","","","","",""
"270.8999999985099","arrows.png","40","image-keyboard-response","446","510323","0.0-7.0-7.48","","","test","downarrow","0","1","FALSE","FALSE","true"
"null","<p style=""color: green; font-size:300%;"">correct: $2.50</p>","null","html-keyboard-response","447","511577","0.0-7.0-8.48","","","","","","","","",""
"null","<div style=""font-size:60px;""> </div>","null","html-keyboard-response","448","512630","0.0-7.0-0.49","","","fixation_1","","","","","",""
"null","","null","image-keyboard-response","449","512636","0.0-7.0-1.49","","","test","rightarrow","1","1","FALSE","FALSE",""
"null","<div style=""font-size:60px;""> </div>","null","html-keyboard-response","450","512937","0.0-7.0-2.49","","","fixation_2","","","","","",""
"null","img_2.bmp","null","image-keyboard-response","451","513939","0.0-7.0-3.49","","","img_on","","","","","",""
"null","<div style=""font-size:60px;""> </div>","null","html-keyboard-response","452","514241","0.0-7.0-4.49","","","fixation_3","","","","","",""
"null","","null","html-keyboard-response","453","514247","0.0-7.0-5.49","","","test","rightarrow","1","1","FALSE","FALSE",""
"null","<div style=""font-size:60px;""> </div>","null","html-keyboard-response","454","514548","0.0-7.0-6.49","","","fixation_4","","","","","",""
"249","arrows.png","39","image-keyboard-response","455","514798","0.0-7.0-7.49","","","test","rightarrow","1","1","FALSE","FALSE","true"
"null","<p style=""color: green; font-size:300%;"">correct: $7.50</p>","null","html-keyboard-response","456","516051","0.0-7.0-8.49","","","","","","","","",""
"null","<div style=""font-size:60px;""> </div>","null","html-keyboard-response","457","517604","0.0-7.0-0.50","","","fixation_1","","","","","",""
"null","","null","image-keyboard-response","458","517609","0.0-7.0-1.50","","","test","uparrow","1","1","FALSE","FALSE",""
"null","<div style=""font-size:60px;""> </div>","null","html-keyboard-response","459","517911","0.0-7.0-2.50","","","fixation_2","","","","","",""
"null","img_1.bmp","null","image-keyboard-response","460","518914","0.0-7.0-3.50","","","img_on","","","","","",""
"null","<div style=""font-size:60px;""> </div>","null","html-keyboard-response","461","519216","0.0-7.0-4.50","","","fixation_3","","","","","",""
"null","","null","html-keyboard-response","462","519222","0.0-7.0-5.50","","","test","uparrow","1","1","FALSE","FALSE",""
"null","<div style=""font-size:60px;""> </div>","null","html-keyboard-response","463","519523","0.0-7.0-6.50","","","fixation_4","","","","","",""
"95.40000000223517","arrows.png","38","image-keyboard-response","464","519619","0.0-7.0-7.50","","","test","uparrow","1","1","FALSE","FALSE","true"
"null","<p style=""color: green; font-size:300%;"">correct: $7.50</p>","null","html-keyboard-response","465","520873","0.0-7.0-8.50","","","","","","","","",""
"null","<div style=""font-size:60px;""> </div>","null","html-keyboard-response","466","522428","0.0-7.0-0.51","","","fixation_1","","","","","",""
"null","","null","image-keyboard-response","467","522434","0.0-7.0-1.51","","","test","leftarrow","0","1","FALSE","FALSE",""
"null","<div style=""font-size:60px;""> </div>","null","html-keyboard-response","468","522736","0.0-7.0-2.51","","","fixation_2","","","","","",""
"null","img_4.bmp","null","image-keyboard-response","469","523739","0.0-7.0-3.51","","","img_on","","","","","",""
"null","<div style=""font-size:60px;""> </div>","null","html-keyboard-response","470","524041","0.0-7.0-4.51","","","fixation_3","","","","","",""
"null","","null","html-keyboard-response","471","524047","0.0-7.0-5.51","","","test","leftarrow","0","1","FALSE","FALSE",""
"null","<div style=""font-size:60px;""> </div>","null","html-keyboard-response","472","524349","0.0-7.0-6.51","","","fixation_4","","","","","",""
"212.5","arrows.png","37","image-keyboard-response","473","524563","0.0-7.0-7.51","","","test","leftarrow","0","1","FALSE","FALSE","true"
"null","<p style=""color: green; font-size:300%;"">correct: $2.50</p>","null","html-keyboard-response","474","525822","0.0-7.0-8.51","","","","","","","","",""
"null","<div style=""font-size:60px;""> </div>","null","html-keyboard-response","475","526891","0.0-7.0-0.52","","","fixation_1","","","","","",""
"null","","null","image-keyboard-response","476","526898","0.0-7.0-1.52","","","test","uparrow","1","1","FALSE","FALSE",""
"null","<div style=""font-size:60px;""> </div>","null","html-keyboard-response","477","527200","0.0-7.0-2.52","","","fixation_2","","","","","",""
"null","img_1.bmp","null","image-keyboard-response","478","528202","0.0-7.0-3.52","","","img_on","","","","","",""
"null","<div style=""font-size:60px;""> </div>","null","html-keyboard-response","479","528504","0.0-7.0-4.52","","","fixation_3","","","","","",""
"null","","null","html-keyboard-response","480","528509","0.0-7.0-5.52","","","test","uparrow","1","1","FALSE","FALSE",""
"null","<div style=""font-size:60px;""> </div>","null","html-keyboard-response","481","528814","0.0-7.0-6.52","","","fixation_4","","","","","",""
"147.89999999850988","arrows.png","38","image-keyboard-response","482","528963","0.0-7.0-7.52","","","test","uparrow","1","1","FALSE","FALSE","true"
"null","<p style=""color: green; font-size:300%;"">correct: $7.50</p>","null","html-keyboard-response","483","530219","0.0-7.0-8.52","","","","","","","","",""
"null","<div style=""font-size:60px;""> </div>","null","html-keyboard-response","484","531273","0.0-7.0-0.53","","","fixation_1","","","","","",""
"null","","null","image-keyboard-response","485","531278","0.0-7.0-1.53","","","test","rightarrow","1","1","FALSE","FALSE",""
"null","<div style=""font-size:60px;""> </div>","null","html-keyboard-response","486","531580","0.0-7.0-2.53","","","fixation_2","","","","","",""
"null","img_2.bmp","null","image-keyboard-response","487","532586","0.0-7.0-3.53","","","img_on","","","","","",""
"null","<div style=""font-size:60px;""> </div>","null","html-keyboard-response","488","532888","0.0-7.0-4.53","","","fixation_3","","","","","",""
"null","","null","html-keyboard-response","489","532894","0.0-7.0-5.53","","","test","rightarrow","1","1","FALSE","FALSE",""
"null","<div style=""font-size:60px;""> </div>","null","html-keyboard-response","490","533197","0.0-7.0-6.53","","","fixation_4","","","","","",""
"501.1000000014901","arrows.png","39","image-keyboard-response","491","533699","0.0-7.0-7.53","","","test","rightarrow","1","1","FALSE","FALSE","true"
"null","<p style=""color: green; font-size:300%;"">correct: $7.50</p>","null","html-keyboard-response","492","534952","0.0-7.0-8.53","","","","","","","","",""
"null","<div style=""font-size:60px;""> </div>","null","html-keyboard-response","493","536258","0.0-7.0-0.54","","","fixation_1","","","","","",""
"null","","null","image-keyboard-response","494","536270","0.0-7.0-1.54","","","test","leftarrow","0","1","FALSE","FALSE",""
"null","<div style=""font-size:60px;""> </div>","null","html-keyboard-response","495","536571","0.0-7.0-2.54","","","fixation_2","","","","","",""
"null","img_4.bmp","null","image-keyboard-response","496","537573","0.0-7.0-3.54","","","img_on","","","","","",""
"null","<div style=""font-size:60px;""> </div>","null","html-keyboard-response","497","537876","0.0-7.0-4.54","","","fixation_3","","","","","",""
"null","","null","html-keyboard-response","498","537883","0.0-7.0-5.54","","","test","leftarrow","0","1","FALSE","FALSE",""
"null","<div style=""font-size:60px;""> </div>","null","html-keyboard-response","499","538186","0.0-7.0-6.54","","","fixation_4","","","","","",""
"287.1000000014901","arrows.png","37","image-keyboard-response","500","538474","0.0-7.0-7.54","","","test","leftarrow","0","1","FALSE","FALSE","true"
"null","<p style=""color: green; font-size:300%;"">correct: $2.50</p>","null","html-keyboard-response","501","539728","0.0-7.0-8.54","","","","","","","","",""
"null","<div style=""font-size:60px;""> </div>","null","html-keyboard-response","502","540281","0.0-7.0-0.55","","","fixation_1","","","","","",""
"null","","null","image-keyboard-response","503","540287","0.0-7.0-1.55","","","test","downarrow","0","1","FALSE","FALSE",""
"null","<div style=""font-size:60px;""> </div>","null","html-keyboard-response","504","540588","0.0-7.0-2.55","","","fixation_2","","","","","",""
"null","img_3.bmp","null","image-keyboard-response","505","541590","0.0-7.0-3.55","","","img_on","","","","","",""
"null","<div style=""font-size:60px;""> </div>","null","html-keyboard-response","506","541893","0.0-7.0-4.55","","","fixation_3","","","","","",""
"null","","null","html-keyboard-response","507","541899","0.0-7.0-5.55","","","test","downarrow","0","1","FALSE","FALSE",""
"null","<div style=""font-size:60px;""> </div>","null","html-keyboard-response","508","542200","0.0-7.0-6.55","","","fixation_4","","","","","",""
"33.400000002235174","arrows.png","40","image-keyboard-response","509","542234","0.0-7.0-7.55","","","test","downarrow","0","1","FALSE","FALSE","true"
"null","<p style=""color: green; font-size:300%;"">correct: $2.50</p>","null","html-keyboard-response","510","543489","0.0-7.0-8.55","","","","","","","","",""
"null","<div style=""font-size:60px;""> </div>","null","html-keyboard-response","511","544297","0.0-7.0-0.56","","","fixation_1","","","","","",""
"null","","null","image-keyboard-response","512","544303","0.0-7.0-1.56","","","test","downarrow","0","1","FALSE","FALSE",""
"null","<div style=""font-size:60px;""> </div>","null","html-keyboard-response","513","544604","0.0-7.0-2.56","","","fixation_2","","","","","",""
"null","img_3.bmp","null","image-keyboard-response","514","545606","0.0-7.0-3.56","","","img_on","","","","","",""
"null","<div style=""font-size:60px;""> </div>","null","html-keyboard-response","515","545907","0.0-7.0-4.56","","","fixation_3","","","","","",""
"null","","null","html-keyboard-response","516","545913","0.0-7.0-5.56","","","test","downarrow","0","1","FALSE","FALSE",""
"null","<div style=""font-size:60px;""> </div>","null","html-keyboard-response","517","546214","0.0-7.0-6.56","","","fixation_4","","","","","",""
"124.10000000149012","arrows.png","40","image-keyboard-response","518","546339","0.0-7.0-7.56","","","test","downarrow","0","1","FALSE","FALSE","true"
"null","<p style=""color: green; font-size:300%;"">correct: $2.50</p>","null","html-keyboard-response","519","547592","0.0-7.0-8.56","","","","","","","","",""
"null","<div style=""font-size:60px;""> </div>","null","html-keyboard-response","520","548897","0.0-7.0-0.57","","","fixation_1","","","","","",""
"null","","null","image-keyboard-response","521","548901","0.0-7.0-1.57","","","test","uparrow","1","1","FALSE","FALSE",""
"null","<div style=""font-size:60px;""> </div>","null","html-keyboard-response","522","549203","0.0-7.0-2.57","","","fixation_2","","","","","",""
"null","img_1.bmp","null","image-keyboard-response","523","550205","0.0-7.0-3.57","","","img_on","","","","","",""
"null","<div style=""font-size:60px;""> </div>","null","html-keyboard-response","524","550508","0.0-7.0-4.57","","","fixation_3","","","","","",""
"null","","null","html-keyboard-response","525","550514","0.0-7.0-5.57","","","test","uparrow","1","1","FALSE","FALSE",""
"null","<div style=""font-size:60px;""> </div>","null","html-keyboard-response","526","550816","0.0-7.0-6.57","","","fixation_4","","","","","",""
"1213.4000000022352","arrows.png","38","image-keyboard-response","527","552034","0.0-7.0-7.57","","","test","uparrow","1","1","FALSE","FALSE","true"
"null","<p style=""color: green; font-size:300%;"">correct: $7.50</p>","null","html-keyboard-response","528","553287","0.0-7.0-8.57","","","","","","","","",""
"null","<div style=""font-size:60px;""> </div>","null","html-keyboard-response","529","554340","0.0-7.0-0.58","","","fixation_1","","","","","",""
"null","","null","image-keyboard-response","530","554346","0.0-7.0-1.58","","","test","rightarrow","1","1","FALSE","FALSE",""
"null","<div style=""font-size:60px;""> </div>","null","html-keyboard-response","531","554648","0.0-7.0-2.58","","","fixation_2","","","","","",""
"null","img_2.bmp","null","image-keyboard-response","532","555651","0.0-7.0-3.58","","","img_on","","","","","",""
"null","<div style=""font-size:60px;""> </div>","null","html-keyboard-response","533","555952","0.0-7.0-4.58","","","fixation_3","","","","","",""
"null","","null","html-keyboard-response","534","555958","0.0-7.0-5.58","","","test","rightarrow","1","1","FALSE","FALSE",""
"null","<div style=""font-size:60px;""> </div>","null","html-keyboard-response","535","556261","0.0-7.0-6.58","","","fixation_4","","","","","",""
"245.10000000149012","arrows.png","39","image-keyboard-response","536","556507","0.0-7.0-7.58","","","test","rightarrow","1","1","FALSE","FALSE","true"
"null","<p style=""color: green; font-size:300%;"">correct: $7.50</p>","null","html-keyboard-response","537","557759","0.0-7.0-8.58","","","","","","","","",""
"null","<div style=""font-size:60px;""> </div>","null","html-keyboard-response","538","558562","0.0-7.0-0.59","","","fixation_1","","","","","",""
"null","","null","image-keyboard-response","539","558568","0.0-7.0-1.59","","","test","leftarrow","0","1","FALSE","FALSE",""
"null","<div style=""font-size:60px;""> </div>","null","html-keyboard-response","540","558870","0.0-7.0-2.59","","","fixation_2","","","","","",""
"null","img_4.bmp","null","image-keyboard-response","541","559873","0.0-7.0-3.59","","","img_on","","","","","",""
"null","<div style=""font-size:60px;""> </div>","null","html-keyboard-response","542","560174","0.0-7.0-4.59","","","fixation_3","","","","","",""
"null","","null","html-keyboard-response","543","560179","0.0-7.0-5.59","","","test","leftarrow","0","1","FALSE","FALSE",""
"null","<div style=""font-size:60px;""> </div>","null","html-keyboard-response","544","560481","0.0-7.0-6.59","","","fixation_4","","","","","",""
"208.79999999701977","arrows.png","37","image-keyboard-response","545","560690","0.0-7.0-7.59","","","test","leftarrow","0","1","FALSE","FALSE","true"
"null","<p style=""color: green; font-size:300%;"">correct: $2.50</p>","null","html-keyboard-response","546","561950","0.0-7.0-8.59","","","","","","","","",""
"null","<div style=""font-size:60px;""> </div>","null","html-keyboard-response","547","562754","0.0-7.0-0.60","","","fixation_1","","","","","",""
"null","","null","image-keyboard-response","548","562760","0.0-7.0-1.60","","","test","rightarrow","1","1","FALSE","FALSE",""
"null","<div style=""font-size:60px;""> </div>","null","html-keyboard-response","549","563062","0.0-7.0-2.60","","","fixation_2","","","","","",""
"null","img_2.bmp","null","image-keyboard-response","550","564063","0.0-7.0-3.60","","","img_on","","","","","",""
"null","<div style=""font-size:60px;""> </div>","null","html-keyboard-response","551","564365","0.0-7.0-4.60","","","fixation_3","","","","","",""
"null","","null","html-keyboard-response","552","564369","0.0-7.0-5.60","","","test","rightarrow","1","1","FALSE","FALSE",""
"null","<div style=""font-size:60px;""> </div>","null","html-keyboard-response","553","564671","0.0-7.0-6.60","","","fixation_4","","","","","",""
"50.69999999925494","arrows.png","39","image-keyboard-response","554","564722","0.0-7.0-7.60","","","test","rightarrow","1","1","FALSE","FALSE","true"
"null","<p style=""color: green; font-size:300%;"">correct: $7.50</p>","null","html-keyboard-response","555","565975","0.0-7.0-8.60","","","","","","","","",""
"null","<div style=""font-size:60px;""> </div>","null","html-keyboard-response","556","567284","0.0-7.0-0.61","","","fixation_1","","","","","",""
"null","","null","image-keyboard-response","557","567291","0.0-7.0-1.61","","","test","uparrow","1","1","FALSE","FALSE",""
"null","<div style=""font-size:60px;""> </div>","null","html-keyboard-response","558","567593","0.0-7.0-2.61","","","fixation_2","","","","","",""
"null","img_1.bmp","null","image-keyboard-response","559","568596","0.0-7.0-3.61","","","img_on","","","","","",""
"null","<div style=""font-size:60px;""> </div>","null","html-keyboard-response","560","568899","0.0-7.0-4.61","","","fixation_3","","","","","",""
"null","","null","html-keyboard-response","561","568904","0.0-7.0-5.61","","","test","uparrow","1","1","FALSE","FALSE",""
"null","<div style=""font-size:60px;""> </div>","null","html-keyboard-response","562","569206","0.0-7.0-6.61","","","fixation_4","","","","","",""
"139.69999999925494","arrows.png","38","image-keyboard-response","563","569347","0.0-7.0-7.61","","","test","uparrow","1","1","FALSE","FALSE","true"
"null","<p style=""color: green; font-size:300%;"">correct: $7.50</p>","null","html-keyboard-response","564","570600","0.0-7.0-8.61","","","","","","","","",""
"null","<div style=""font-size:60px;""> </div>","null","html-keyboard-response","565","571654","0.0-7.0-0.62","","","fixation_1","","","","","",""
"null","","null","image-keyboard-response","566","571660","0.0-7.0-1.62","","","test","leftarrow","0","1","FALSE","FALSE",""
"null","<div style=""font-size:60px;""> </div>","null","html-keyboard-response","567","571961","0.0-7.0-2.62","","","fixation_2","","","","","",""
"null","img_4.bmp","null","image-keyboard-response","568","572964","0.0-7.0-3.62","","","img_on","","","","","",""
"null","<div style=""font-size:60px;""> </div>","null","html-keyboard-response","569","573266","0.0-7.0-4.62","","","fixation_3","","","","","",""
"null","","null","html-keyboard-response","570","573272","0.0-7.0-5.62","","","test","leftarrow","0","1","FALSE","FALSE",""
"null","<div style=""font-size:60px;""> </div>","null","html-keyboard-response","571","573573","0.0-7.0-6.62","","","fixation_4","","","","","",""
"331.69999999925494","arrows.png","37","image-keyboard-response","572","573906","0.0-7.0-7.62","","","test","leftarrow","0","1","FALSE","FALSE","true"
"null","<p style=""color: green; font-size:300%;"">correct: $2.50</p>","null","html-keyboard-response","573","575160","0.0-7.0-8.62","","","","","","","","",""
"null","<div style=""font-size:60px;""> </div>","null","html-keyboard-response","574","575714","0.0-7.0-0.63","","","fixation_1","","","","","",""
"null","","null","image-keyboard-response","575","575720","0.0-7.0-1.63","","","test","downarrow","0","1","FALSE","FALSE",""
"null","<div style=""font-size:60px;""> </div>","null","html-keyboard-response","576","576022","0.0-7.0-2.63","","","fixation_2","","","","","",""
"null","img_3.bmp","null","image-keyboard-response","577","577023","0.0-7.0-3.63","","","img_on","","","","","",""
"null","<div style=""font-size:60px;""> </div>","null","html-keyboard-response","578","577326","0.0-7.0-4.63","","","fixation_3","","","","","",""
"null","","null","html-keyboard-response","579","577332","0.0-7.0-5.63","","","test","downarrow","0","1","FALSE","FALSE",""
"null","<div style=""font-size:60px;""> </div>","null","html-keyboard-response","580","577634","0.0-7.0-6.63","","","fixation_4","","","","","",""
"87.69999999925494","arrows.png","40","image-keyboard-response","581","577722","0.0-7.0-7.63","","","test","downarrow","0","1","FALSE","FALSE","true"
"null","<p style=""color: green; font-size:300%;"">correct: $2.50</p>","null","html-keyboard-response","582","578975","0.0-7.0-8.63","","","","","","","","",""
"null","<div style=""font-size:60px;""> </div>","null","html-keyboard-response","583","580028","0.0-7.0-0.64","","","fixation_1","","","","","",""
"null","","null","image-keyboard-response","584","580035","0.0-7.0-1.64","","","test","downarrow","1","2","FALSE","FALSE",""
"null","<div style=""font-size:60px;""> </div>","null","html-keyboard-response","585","580337","0.0-7.0-2.64","","","fixation_2","","","","","",""
"null","img_6.bmp","null","image-keyboard-response","586","581338","0.0-7.0-3.64","","","img_on","","","","","",""
"null","<div style=""font-size:60px;""> </div>","null","html-keyboard-response","587","581639","0.0-7.0-4.64","","","fixation_3","","","","","",""
"null","","null","html-keyboard-response","588","581645","0.0-7.0-5.64","","","test","downarrow","1","2","FALSE","FALSE",""
"null","<div style=""font-size:60px;""> </div>","null","html-keyboard-response","589","581948","0.0-7.0-6.64","","","fixation_4","","","","","",""
"189.5","arrows.png","40","image-keyboard-response","590","582139","0.0-7.0-7.64","","","test","downarrow","1","2","FALSE","FALSE","true"
"null","<p style=""color: green; font-size:300%;"">correct: $7.50</p>","null","html-keyboard-response","591","583393","0.0-7.0-8.64","","","","","","","","",""
"null","<div style=""font-size:60px;""> </div>","null","html-keyboard-response","592","584199","0.0-7.0-0.65","","","fixation_1","","","","","",""
"null","","null","image-keyboard-response","593","584205","0.0-7.0-1.65","","","test","uparrow","0","2","FALSE","FALSE",""
"null","<div style=""font-size:60px;""> </div>","null","html-keyboard-response","594","584507","0.0-7.0-2.65","","","fixation_2","","","","","",""
"null","img_8.bmp","null","image-keyboard-response","595","585510","0.0-7.0-3.65","","","img_on","","","","","",""
"null","<div style=""font-size:60px;""> </div>","null","html-keyboard-response","596","585817","0.0-7.0-4.65","","","fixation_3","","","","","",""
"null","","null","html-keyboard-response","597","585826","0.0-7.0-5.65","","","test","uparrow","0","2","FALSE","FALSE",""
"null","<div style=""font-size:60px;""> </div>","null","html-keyboard-response","598","586133","0.0-7.0-6.65","","","fixation_4","","","","","",""
"835.3000000007451","arrows.png","38","image-keyboard-response","599","586970","0.0-7.0-7.65","","","test","uparrow","0","2","FALSE","FALSE","true"
"null","<p style=""color: green; font-size:300%;"">correct: $2.50</p>","null","html-keyboard-response","600","588222","0.0-7.0-8.65","","","","","","","","",""
"null","<div style=""font-size:60px;""> </div>","null","html-keyboard-response","601","589529","0.0-7.0-0.66","","","fixation_1","","","","","",""
"null","","null","image-keyboard-response","602","589535","0.0-7.0-1.66","","","test","rightarrow","0","2","FALSE","FALSE",""
"null","<div style=""font-size:60px;""> </div>","null","html-keyboard-response","603","589837","0.0-7.0-2.66","","","fixation_2","","","","","",""
"null","img_5.bmp","null","image-keyboard-response","604","590838","0.0-7.0-3.66","","","img_on","","","","","",""
"null","<div style=""font-size:60px;""> </div>","null","html-keyboard-response","605","591148","0.0-7.0-4.66","","","fixation_3","","","","","",""
"null","","null","html-keyboard-response","606","591154","0.0-7.0-5.66","","","test","rightarrow","0","2","FALSE","FALSE",""
"null","<div style=""font-size:60px;""> </div>","null","html-keyboard-response","607","591456","0.0-7.0-6.66","","","fixation_4","","","","","",""
"489.4000000022352","arrows.png","39","image-keyboard-response","608","591946","0.0-7.0-7.66","","","test","rightarrow","0","2","FALSE","FALSE","true"
"null","<p style=""color: green; font-size:300%;"">correct: $2.50</p>","null","html-keyboard-response","609","593198","0.0-7.0-8.66","","","","","","","","",""
"null","<div style=""font-size:60px;""> </div>","null","html-keyboard-response","610","594001","0.0-7.0-0.67","","","fixation_1","","","","","",""
"null","","null","image-keyboard-response","611","594008","0.0-7.0-1.67","","","test","leftarrow","1","2","FALSE","FALSE",""
"null","<div style=""font-size:60px;""> </div>","null","html-keyboard-response","612","594310","0.0-7.0-2.67","","","fixation_2","","","","","",""
"null","img_7.bmp","null","image-keyboard-response","613","595313","0.0-7.0-3.67","","","img_on","","","","","",""
"null","<div style=""font-size:60px;""> </div>","null","html-keyboard-response","614","595616","0.0-7.0-4.67","","","fixation_3","","","","","",""
"null","","null","html-keyboard-response","615","595622","0.0-7.0-5.67","","","test","leftarrow","1","2","FALSE","FALSE",""
"null","<div style=""font-size:60px;""> </div>","null","html-keyboard-response","616","595924","0.0-7.0-6.67","","","fixation_4","","","","","",""
"405.8999999985099","arrows.png","37","image-keyboard-response","617","596330","0.0-7.0-7.67","","","test","leftarrow","1","2","FALSE","FALSE","true"
"null","<p style=""color: green; font-size:300%;"">correct: $7.50</p>","null","html-keyboard-response","618","597583","0.0-7.0-8.67","","","","","","","","",""
"null","<div style=""font-size:60px;""> </div>","null","html-keyboard-response","619","598637","0.0-7.0-0.68","","","fixation_1","","","","","",""
"null","","null","image-keyboard-response","620","598642","0.0-7.0-1.68","","","test","rightarrow","0","2","FALSE","FALSE",""
"null","<div style=""font-size:60px;""> </div>","null","html-keyboard-response","621","598945","0.0-7.0-2.68","","","fixation_2","","","","","",""
"null","img_5.bmp","null","image-keyboard-response","622","599947","0.0-7.0-3.68","","","img_on","","","","","",""
"null","<div style=""font-size:60px;""> </div>","null","html-keyboard-response","623","600249","0.0-7.0-4.68","","","fixation_3","","","","","",""
"null","","null","html-keyboard-response","624","600255","0.0-7.0-5.68","","","test","rightarrow","0","2","FALSE","FALSE",""
"null","<div style=""font-size:60px;""> </div>","null","html-keyboard-response","625","600557","0.0-7.0-6.68","","","fixation_4","","","","","",""
"156.10000000149012","arrows.png","39","image-keyboard-response","626","600714","0.0-7.0-7.68","","","test","rightarrow","0","2","FALSE","FALSE","true"
"null","<p style=""color: green; font-size:300%;"">correct: $2.50</p>","null","html-keyboard-response","627","601968","0.0-7.0-8.68","","","","","","","","",""
"null","<div style=""font-size:60px;""> </div>","null","html-keyboard-response","628","602772","0.0-7.0-0.69","","","fixation_1","","","","","",""
"null","","null","image-keyboard-response","629","602778","0.0-7.0-1.69","","","test","leftarrow","1","2","FALSE","FALSE",""
"null","<div style=""font-size:60px;""> </div>","null","html-keyboard-response","630","603080","0.0-7.0-2.69","","","fixation_2","","","","","",""
"null","img_7.bmp","null","image-keyboard-response","631","604082","0.0-7.0-3.69","","","img_on","","","","","",""
"null","<div style=""font-size:60px;""> </div>","null","html-keyboard-response","632","604384","0.0-7.0-4.69","","","fixation_3","","","","","",""
"null","","null","html-keyboard-response","633","604390","0.0-7.0-5.69","","","test","leftarrow","1","2","FALSE","FALSE",""
"null","<div style=""font-size:60px;""> </div>","null","html-keyboard-response","634","604693","0.0-7.0-6.69","","","fixation_4","","","","","",""
"195.80000000074506","arrows.png","37","image-keyboard-response","635","604890","0.0-7.0-7.69","","","test","leftarrow","1","2","FALSE","FALSE","true"
"null","<p style=""color: green; font-size:300%;"">correct: $7.50</p>","null","html-keyboard-response","636","606143","0.0-7.0-8.69","","","","","","","","",""
"null","<div style=""font-size:60px;""> </div>","null","html-keyboard-response","637","607696","0.0-7.0-0.70","","","fixation_1","","","","","",""
"null","","null","image-keyboard-response","638","607702","0.0-7.0-1.70","","","test","uparrow","0","2","FALSE","FALSE",""
"null","<div style=""font-size:60px;""> </div>","null","html-keyboard-response","639","608003","0.0-7.0-2.70","","","fixation_2","","","","","",""
"null","img_8.bmp","null","image-keyboard-response","640","609005","0.0-7.0-3.70","","","img_on","","","","","",""
"null","<div style=""font-size:60px;""> </div>","null","html-keyboard-response","641","609307","0.0-7.0-4.70","","","fixation_3","","","","","",""
"null","","null","html-keyboard-response","642","609312","0.0-7.0-5.70","","","test","uparrow","0","2","FALSE","FALSE",""
"null","<div style=""font-size:60px;""> </div>","null","html-keyboard-response","643","609614","0.0-7.0-6.70","","","fixation_4","","","","","",""
"1395","arrows.png","38","image-keyboard-response","644","611011","0.0-7.0-7.70","","","test","uparrow","0","2","FALSE","FALSE","true"
"null","<p style=""color: green; font-size:300%;"">correct: $2.50</p>","null","html-keyboard-response","645","612265","0.0-7.0-8.70","","","","","","","","",""
"null","<div style=""font-size:60px;""> </div>","null","html-keyboard-response","646","613824","0.0-7.0-0.71","","","fixation_1","","","","","",""
"null","","null","image-keyboard-response","647","613830","0.0-7.0-1.71","","","test","downarrow","1","2","FALSE","FALSE",""
"null","<div style=""font-size:60px;""> </div>","null","html-keyboard-response","648","614133","0.0-7.0-2.71","","","fixation_2","","","","","",""
"null","img_6.bmp","null","image-keyboard-response","649","615135","0.0-7.0-3.71","","","img_on","","","","","",""
"null","<div style=""font-size:60px;""> </div>","null","html-keyboard-response","650","615437","0.0-7.0-4.71","","","fixation_3","","","","","",""
"null","","null","html-keyboard-response","651","615443","0.0-7.0-5.71","","","test","downarrow","1","2","FALSE","FALSE",""
"null","<div style=""font-size:60px;""> </div>","null","html-keyboard-response","652","615744","0.0-7.0-6.71","","","fixation_4","","","","","",""
"200.69999999925494","arrows.png","40","image-keyboard-response","653","615946","0.0-7.0-7.71","","","test","downarrow","1","2","FALSE","FALSE","true"
"null","<p style=""color: green; font-size:300%;"">correct: $7.50</p>","null","html-keyboard-response","654","617200","0.0-7.0-8.71","","","","","","","","",""
"null","<div style=""font-size:60px;""> </div>","null","html-keyboard-response","655","617755","0.0-7.0-0.72","","","fixation_1","","","","","",""
"null","","null","image-keyboard-response","656","617761","0.0-7.0-1.72","","","test","leftarrow","1","2","FALSE","FALSE",""
"null","<div style=""font-size:60px;""> </div>","null","html-keyboard-response","657","618062","0.0-7.0-2.72","","","fixation_2","","","","","",""
"null","img_7.bmp","null","image-keyboard-response","658","619064","0.0-7.0-3.72","","","img_on","","","","","",""
"null","<div style=""font-size:60px;""> </div>","null","html-keyboard-response","659","619366","0.0-7.0-4.72","","","fixation_3","","","","","",""
"null","","null","html-keyboard-response","660","619372","0.0-7.0-5.72","","","test","leftarrow","1","2","FALSE","FALSE",""
"null","<div style=""font-size:60px;""> </div>","null","html-keyboard-response","661","619674","0.0-7.0-6.72","","","fixation_4","","","","","",""
"919.3000000007451","arrows.png","37","image-keyboard-response","662","620594","0.0-7.0-7.72","","","test","leftarrow","1","2","FALSE","FALSE","true"
"null","<p style=""color: green; font-size:300%;"">correct: $7.50</p>","null","html-keyboard-response","663","621846","0.0-7.0-8.72","","","","","","","","",""
"null","<div style=""font-size:60px;""> </div>","null","html-keyboard-response","664","623399","0.0-7.0-0.73","","","fixation_1","","","","","",""
"null","","null","image-keyboard-response","665","623405","0.0-7.0-1.73","","","test","rightarrow","0","2","FALSE","FALSE",""
"null","<div style=""font-size:60px;""> </div>","null","html-keyboard-response","666","623706","0.0-7.0-2.73","","","fixation_2","","","","","",""
"null","img_5.bmp","null","image-keyboard-response","667","624709","0.0-7.0-3.73","","","img_on","","","","","",""
"null","<div style=""font-size:60px;""> </div>","null","html-keyboard-response","668","625013","0.0-7.0-4.73","","","fixation_3","","","","","",""
"null","","null","html-keyboard-response","669","625019","0.0-7.0-5.73","","","test","rightarrow","0","2","FALSE","FALSE",""
"null","<div style=""font-size:60px;""> </div>","null","html-keyboard-response","670","625320","0.0-7.0-6.73","","","fixation_4","","","","","",""
"312.8999999985099","arrows.png","39","image-keyboard-response","671","625634","0.0-7.0-7.73","","","test","rightarrow","0","2","FALSE","FALSE","true"
"null","<p style=""color: green; font-size:300%;"">correct: $2.50</p>","null","html-keyboard-response","672","626887","0.0-7.0-8.73","","","","","","","","",""
"null","<div style=""font-size:60px;""> </div>","null","html-keyboard-response","673","627441","0.0-7.0-0.74","","","fixation_1","","","","","",""
"null","","null","image-keyboard-response","674","627447","0.0-7.0-1.74","","","test","downarrow","1","2","FALSE","FALSE",""
"null","<div style=""font-size:60px;""> </div>","null","html-keyboard-response","675","627749","0.0-7.0-2.74","","","fixation_2","","","","","",""
"null","img_6.bmp","null","image-keyboard-response","676","628751","0.0-7.0-3.74","","","img_on","","","","","",""
"null","<div style=""font-size:60px;""> </div>","null","html-keyboard-response","677","629054","0.0-7.0-4.74","","","fixation_3","","","","","",""
"null","","null","html-keyboard-response","678","629058","0.0-7.0-5.74","","","test","downarrow","1","2","FALSE","FALSE",""
"null","<div style=""font-size:60px;""> </div>","null","html-keyboard-response","679","629360","0.0-7.0-6.74","","","fixation_4","","","","","",""
"48.19999999925494","arrows.png","40","image-keyboard-response","680","629410","0.0-7.0-7.74","","","test","downarrow","1","2","FALSE","FALSE","true"
"null","<p style=""color: green; font-size:300%;"">correct: $7.50</p>","null","html-keyboard-response","681","630663","0.0-7.0-8.74","","","","","","","","",""
"null","<div style=""font-size:60px;""> </div>","null","html-keyboard-response","682","631717","0.0-7.0-0.75","","","fixation_1","","","","","",""
"null","","null","image-keyboard-response","683","631722","0.0-7.0-1.75","","","test","uparrow","0","2","FALSE","FALSE",""
"null","<div style=""font-size:60px;""> </div>","null","html-keyboard-response","684","632024","0.0-7.0-2.75","","","fixation_2","","","","","",""
"null","img_8.bmp","null","image-keyboard-response","685","633027","0.0-7.0-3.75","","","img_on","","","","","",""
"null","<div style=""font-size:60px;""> </div>","null","html-keyboard-response","686","633329","0.0-7.0-4.75","","","fixation_3","","","","","",""
"null","","null","html-keyboard-response","687","633335","0.0-7.0-5.75","","","test","uparrow","0","2","FALSE","FALSE",""
"null","<div style=""font-size:60px;""> </div>","null","html-keyboard-response","688","633637","0.0-7.0-6.75","","","fixation_4","","","","","",""
"235.10000000149012","arrows.png","38","image-keyboard-response","689","633873","0.0-7.0-7.75","","","test","uparrow","0","2","FALSE","FALSE","true"
"null","<p style=""color: green; font-size:300%;"">correct: $2.50</p>","null","html-keyboard-response","690","635127","0.0-7.0-8.75","","","","","","","","",""
"null","<div style=""font-size:60px;""> </div>","null","html-keyboard-response","691","636179","0.0-7.0-0.76","","","fixation_1","","","","","",""
"null","","null","image-keyboard-response","692","636186","0.0-7.0-1.76","","","test","downarrow","1","2","FALSE","FALSE",""
"null","<div style=""font-size:60px;""> </div>","null","html-keyboard-response","693","636488","0.0-7.0-2.76","","","fixation_2","","","","","",""
"null","img_6.bmp","null","image-keyboard-response","694","637491","0.0-7.0-3.76","","","img_on","","","","","",""
"null","<div style=""font-size:60px;""> </div>","null","html-keyboard-response","695","637793","0.0-7.0-4.76","","","fixation_3","","","","","",""
"null","","null","html-keyboard-response","696","637800","0.0-7.0-5.76","","","test","downarrow","1","2","FALSE","FALSE",""
"null","<div style=""font-size:60px;""> </div>","null","html-keyboard-response","697","638102","0.0-7.0-6.76","","","fixation_4","","","","","",""
"34.600000001490116","arrows.png","40","image-keyboard-response","698","638138","0.0-7.0-7.76","","","test","downarrow","1","2","FALSE","FALSE","true"
"null","<p style=""color: green; font-size:300%;"">correct: $7.50</p>","null","html-keyboard-response","699","639391","0.0-7.0-8.76","","","","","","","","",""
"null","<div style=""font-size:60px;""> </div>","null","html-keyboard-response","700","640444","0.0-7.0-0.77","","","fixation_1","","","","","",""
"null","","null","image-keyboard-response","701","640450","0.0-7.0-1.77","","","test","uparrow","0","2","FALSE","FALSE",""
"null","<div style=""font-size:60px;""> </div>","null","html-keyboard-response","702","640752","0.0-7.0-2.77","","","fixation_2","","","","","",""
"null","img_8.bmp","null","image-keyboard-response","703","641754","0.0-7.0-3.77","","","img_on","","","","","",""
"null","<div style=""font-size:60px;""> </div>","null","html-keyboard-response","704","642056","0.0-7.0-4.77","","","fixation_3","","","","","",""
"null","","null","html-keyboard-response","705","642062","0.0-7.0-5.77","","","test","uparrow","0","2","FALSE","FALSE",""
"null","<div style=""font-size:60px;""> </div>","null","html-keyboard-response","706","642372","0.0-7.0-6.77","","","fixation_4","","","","","",""
"444.69999999925494","arrows.png","38","image-keyboard-response","707","642818","0.0-7.0-7.77","","","test","uparrow","0","2","FALSE","FALSE","true"
"null","<p style=""color: green; font-size:300%;"">correct: $2.50</p>","null","html-keyboard-response","708","644072","0.0-7.0-8.77","","","","","","","","",""
"null","<div style=""font-size:60px;""> </div>","null","html-keyboard-response","709","644875","0.0-7.0-0.78","","","fixation_1","","","","","",""
