"rt","stimulus","key_press","trial_type","trial_index","time_elapsed","internal_node_id","responses","view_history","test_part","correct_response","outcome","context","cc","sc","correct"
"20420.584999999846","<p><b>Welcome to the Picture Learning Game!</b></p>
      <p>The game will take ~35 minutes to complete, and you can make up to $17.50.</p>
      <p>You must use a desktop or laptop computer computer (no mobile devices).</p>
      <p><em>Press any key to continue.</em></p>","32","html-keyboard-response","0","20452","0.0-0.0","","","","","","","","",""
"14172.359999996843","","","survey-text","1","34639","0.0-1.0","{""aws"":""A20NITCOBY4775""}","","","","","","","",""
"20734.970000004978","","","survey-text","2","55422","0.0-2.0","{""age"":""64"",""english"":""Y"",""handedness"":""R"",""desktop"":""Y""}","","","","","","","",""
"32842.955000000075","","","instructions","3","88268","0.0-3.0","","[{""page_index"":0,""viewing_time"":1976.2150000024121},{""page_index"":1,""viewing_time"":6751.989999997022},{""page_index"":2,""viewing_time"":3938.3450000023004},{""page_index"":3,""viewing_time"":11727.460000001884},{""page_index"":4,""viewing_time"":8447.744999997667}]","","","","","","",""
"null","sample1.bmp","null","image-keyboard-response","4","89274","0.0-4.0","","","","","","","","",""
"37.754999997559935","arrows.png","38","image-keyboard-response","5","89627","0.0-5.0","","","","","","","","",""
"47987.60999999649","","","instructions","6","137616","0.0-6.0","","[{""page_index"":0,""viewing_time"":2502.5600000008126},{""page_index"":1,""viewing_time"":2628.404999995837},{""page_index"":2,""viewing_time"":7114.430000001448},{""page_index"":3,""viewing_time"":8213.450000002922},{""page_index"":4,""viewing_time"":22455.52499999758},{""page_index"":5,""viewing_time"":2704.4800000003306},{""page_index"":6,""viewing_time"":2368.139999998675}]","","","","","","",""
"null","<div style=""font-size:60px;""> </div>","null","html-keyboard-response","7","137919","0.0-7.0-0.0","","","fixation_1","","","","","",""
"null","","null","image-keyboard-response","8","137930","0.0-7.0-1.0","","","test","leftarrow","0","1","FALSE","FALSE",""
"null","<div style=""font-size:60px;""> </div>","null","html-keyboard-response","9","138234","0.0-7.0-2.0","","","fixation_2","","","","","",""
"null","img_4.bmp","null","image-keyboard-response","10","139236","0.0-7.0-3.0","","","img_on","","","","","",""
"null","<div style=""font-size:60px;""> </div>","null","html-keyboard-response","11","139539","0.0-7.0-4.0","","","fixation_3","","","","","",""
"null","","null","html-keyboard-response","12","139547","0.0-7.0-5.0","","","test","leftarrow","0","1","FALSE","FALSE",""
"null","<div style=""font-size:60px;""> </div>","null","html-keyboard-response","13","139849","0.0-7.0-6.0","","","fixation_4","","","","","",""
"1391.2300000010873","arrows.png","37","image-keyboard-response","14","141242","0.0-7.0-7.0","","","test","leftarrow","0","1","FALSE","FALSE","true"
"null","<p style=""color: green; font-size:300%;"">correct: $2.50</p>","null","html-keyboard-response","15","142496","0.0-7.0-8.0","","","","","","","","",""
"null","<div style=""font-size:60px;""> </div>","null","html-keyboard-response","16","143298","0.0-7.0-0.1","","","fixation_1","","","","","",""
"null","","null","image-keyboard-response","17","143305","0.0-7.0-1.1","","","test","uparrow","1","1","FALSE","FALSE",""
"null","<div style=""font-size:60px;""> </div>","null","html-keyboard-response","18","143606","0.0-7.0-2.1","","","fixation_2","","","","","",""
"null","img_1.bmp","null","image-keyboard-response","19","144608","0.0-7.0-3.1","","","img_on","","","","","",""
"null","<div style=""font-size:60px;""> </div>","null","html-keyboard-response","20","144910","0.0-7.0-4.1","","","fixation_3","","","","","",""
"null","","null","html-keyboard-response","21","144916","0.0-7.0-5.1","","","test","uparrow","1","1","FALSE","FALSE",""
"null","<div style=""font-size:60px;""> </div>","null","html-keyboard-response","22","145217","0.0-7.0-6.1","","","fixation_4","","","","","",""
"705.4099999950267","arrows.png","38","image-keyboard-response","23","145924","0.0-7.0-7.1","","","test","uparrow","1","1","FALSE","FALSE","true"
"null","<p style=""color: green; font-size:300%;"">correct: $7.50</p>","null","html-keyboard-response","24","147179","0.0-7.0-8.1","","","","","","","","",""
"null","<div style=""font-size:60px;""> </div>","null","html-keyboard-response","25","148732","0.0-7.0-0.2","","","fixation_1","","","","","",""
"null","","null","image-keyboard-response","26","148740","0.0-7.0-1.2","","","test","rightarrow","1","1","FALSE","FALSE",""
"null","<div style=""font-size:60px;""> </div>","null","html-keyboard-response","27","149042","0.0-7.0-2.2","","","fixation_2","","","","","",""
"null","img_2.bmp","null","image-keyboard-response","28","150043","0.0-7.0-3.2","","","img_on","","","","","",""
"null","<div style=""font-size:60px;""> </div>","null","html-keyboard-response","29","150345","0.0-7.0-4.2","","","fixation_3","","","","","",""
"null","","null","html-keyboard-response","30","150350","0.0-7.0-5.2","","","test","rightarrow","1","1","FALSE","FALSE",""
"null","<div style=""font-size:60px;""> </div>","null","html-keyboard-response","31","150651","0.0-7.0-6.2","","","fixation_4","","","","","",""
"651.239999999234","arrows.png","39","image-keyboard-response","32","151304","0.0-7.0-7.2","","","test","rightarrow","1","1","FALSE","FALSE","true"
"null","<p style=""color: green; font-size:300%;"">correct: $7.50</p>","null","html-keyboard-response","33","152557","0.0-7.0-8.2","","","","","","","","",""
"null","<div style=""font-size:60px;""> </div>","null","html-keyboard-response","34","153359","0.0-7.0-0.3","","","fixation_1","","","","","",""
"null","","null","image-keyboard-response","35","153364","0.0-7.0-1.3","","","test","downarrow","0","1","FALSE","FALSE",""
"null","<div style=""font-size:60px;""> </div>","null","html-keyboard-response","36","153666","0.0-7.0-2.3","","","fixation_2","","","","","",""
"null","img_3.bmp","null","image-keyboard-response","37","154668","0.0-7.0-3.3","","","img_on","","","","","",""
"null","<div style=""font-size:60px;""> </div>","null","html-keyboard-response","38","154970","0.0-7.0-4.3","","","fixation_3","","","","","",""
"null","","null","html-keyboard-response","39","154977","0.0-7.0-5.3","","","test","downarrow","0","1","FALSE","FALSE",""
"null","<div style=""font-size:60px;""> </div>","null","html-keyboard-response","40","155278","0.0-7.0-6.3","","","fixation_4","","","","","",""
"733.0050000018673","arrows.png","40","image-keyboard-response","41","156012","0.0-7.0-7.3","","","test","downarrow","0","1","FALSE","FALSE","true"
"null","<p style=""color: green; font-size:300%;"">correct: $2.50</p>","null","html-keyboard-response","42","157264","0.0-7.0-8.3","","","","","","","","",""
"null","<div style=""font-size:60px;""> </div>","null","html-keyboard-response","43","158067","0.0-7.0-0.4","","","fixation_1","","","","","",""
"null","","null","image-keyboard-response","44","158073","0.0-7.0-1.4","","","test","uparrow","1","1","FALSE","FALSE",""
"null","<div style=""font-size:60px;""> </div>","null","html-keyboard-response","45","158374","0.0-7.0-2.4","","","fixation_2","","","","","",""
"null","img_1.bmp","null","image-keyboard-response","46","159376","0.0-7.0-3.4","","","img_on","","","","","",""
"null","<div style=""font-size:60px;""> </div>","null","html-keyboard-response","47","159677","0.0-7.0-4.4","","","fixation_3","","","","","",""
"null","","null","html-keyboard-response","48","159683","0.0-7.0-5.4","","","test","uparrow","1","1","FALSE","FALSE",""
"null","<div style=""font-size:60px;""> </div>","null","html-keyboard-response","49","159985","0.0-7.0-6.4","","","fixation_4","","","","","",""
"763.9149999959045","arrows.png","38","image-keyboard-response","50","160750","0.0-7.0-7.4","","","test","uparrow","1","1","FALSE","FALSE","true"
"null","<p style=""color: green; font-size:300%;"">correct: $7.50</p>","null","html-keyboard-response","51","162001","0.0-7.0-8.4","","","","","","","","",""
"null","<div style=""font-size:60px;""> </div>","null","html-keyboard-response","52","162803","0.0-7.0-0.5","","","fixation_1","","","","","",""
"null","","null","image-keyboard-response","53","162810","0.0-7.0-1.5","","","test","rightarrow","1","1","FALSE","FALSE",""
"null","<div style=""font-size:60px;""> </div>","null","html-keyboard-response","54","163121","0.0-7.0-2.5","","","fixation_2","","","","","",""
"null","img_2.bmp","null","image-keyboard-response","55","164122","0.0-7.0-3.5","","","img_on","","","","","",""
"null","<div style=""font-size:60px;""> </div>","null","html-keyboard-response","56","164424","0.0-7.0-4.5","","","fixation_3","","","","","",""
"null","","null","html-keyboard-response","57","164430","0.0-7.0-5.5","","","test","rightarrow","1","1","FALSE","FALSE",""
"null","<div style=""font-size:60px;""> </div>","null","html-keyboard-response","58","164733","0.0-7.0-6.5","","","fixation_4","","","","","",""
"584.96500000183","arrows.png","39","image-keyboard-response","59","165320","0.0-7.0-7.5","","","test","rightarrow","1","1","FALSE","FALSE","true"
"null","<p style=""color: green; font-size:300%;"">correct: $7.50</p>","null","html-keyboard-response","60","166573","0.0-7.0-8.5","","","","","","","","",""
"null","<div style=""font-size:60px;""> </div>","null","html-keyboard-response","61","168127","0.0-7.0-0.6","","","fixation_1","","","","","",""
"null","","null","image-keyboard-response","62","168142","0.0-7.0-1.6","","","test","downarrow","0","1","FALSE","FALSE",""
"null","<div style=""font-size:60px;""> </div>","null","html-keyboard-response","63","168446","0.0-7.0-2.6","","","fixation_2","","","","","",""
"null","img_3.bmp","null","image-keyboard-response","64","169447","0.0-7.0-3.6","","","img_on","","","","","",""
"null","<div style=""font-size:60px;""> </div>","null","html-keyboard-response","65","169749","0.0-7.0-4.6","","","fixation_3","","","","","",""
"null","","null","html-keyboard-response","66","169756","0.0-7.0-5.6","","","test","downarrow","0","1","FALSE","FALSE",""
"null","<div style=""font-size:60px;""> </div>","null","html-keyboard-response","67","170058","0.0-7.0-6.6","","","fixation_4","","","","","",""
"589.9099999951432","arrows.png","40","image-keyboard-response","68","170649","0.0-7.0-7.6","","","test","downarrow","0","1","FALSE","FALSE","true"
"null","<p style=""color: green; font-size:300%;"">correct: $2.50</p>","null","html-keyboard-response","69","171909","0.0-7.0-8.6","","","","","","","","",""
"null","<div style=""font-size:60px;""> </div>","null","html-keyboard-response","70","172713","0.0-7.0-0.7","","","fixation_1","","","","","",""
"null","","null","image-keyboard-response","71","172719","0.0-7.0-1.7","","","test","leftarrow","0","1","FALSE","FALSE",""
"null","<div style=""font-size:60px;""> </div>","null","html-keyboard-response","72","173022","0.0-7.0-2.7","","","fixation_2","","","","","",""
"null","img_4.bmp","null","image-keyboard-response","73","174025","0.0-7.0-3.7","","","img_on","","","","","",""
"null","<div style=""font-size:60px;""> </div>","null","html-keyboard-response","74","174327","0.0-7.0-4.7","","","fixation_3","","","","","",""
"null","","null","html-keyboard-response","75","174334","0.0-7.0-5.7","","","test","leftarrow","0","1","FALSE","FALSE",""
"null","<div style=""font-size:60px;""> </div>","null","html-keyboard-response","76","174636","0.0-7.0-6.7","","","fixation_4","","","","","",""
"557.4500000002445","arrows.png","37","image-keyboard-response","77","175196","0.0-7.0-7.7","","","test","leftarrow","0","1","FALSE","FALSE","true"
"null","<p style=""color: green; font-size:300%;"">correct: $2.50</p>","null","html-keyboard-response","78","176452","0.0-7.0-8.7","","","","","","","","",""
"null","<div style=""font-size:60px;""> </div>","null","html-keyboard-response","79","177506","0.0-7.0-0.8","","","fixation_1","","","","","",""
"null","","null","image-keyboard-response","80","177513","0.0-7.0-1.8","","","test","uparrow","1","1","FALSE","FALSE",""
"null","<div style=""font-size:60px;""> </div>","null","html-keyboard-response","81","177816","0.0-7.0-2.8","","","fixation_2","","","","","",""
"null","img_1.bmp","null","image-keyboard-response","82","178819","0.0-7.0-3.8","","","img_on","","","","","",""
"null","<div style=""font-size:60px;""> </div>","null","html-keyboard-response","83","179121","0.0-7.0-4.8","","","fixation_3","","","","","",""
"null","","null","html-keyboard-response","84","179128","0.0-7.0-5.8","","","test","uparrow","1","1","FALSE","FALSE",""
"null","<div style=""font-size:60px;""> </div>","null","html-keyboard-response","85","179430","0.0-7.0-6.8","","","fixation_4","","","","","",""
"667.0850000009523","arrows.png","38","image-keyboard-response","86","180101","0.0-7.0-7.8","","","test","uparrow","1","1","FALSE","FALSE","true"
"null","<p style=""color: green; font-size:300%;"">correct: $7.50</p>","null","html-keyboard-response","87","181354","0.0-7.0-8.8","","","","","","","","",""
"null","<div style=""font-size:60px;""> </div>","null","html-keyboard-response","88","181906","0.0-7.0-0.9","","","fixation_1","","","","","",""
"null","","null","image-keyboard-response","89","181911","0.0-7.0-1.9","","","test","rightarrow","1","1","FALSE","FALSE",""
"null","<div style=""font-size:60px;""> </div>","null","html-keyboard-response","90","182213","0.0-7.0-2.9","","","fixation_2","","","","","",""
"null","img_2.bmp","null","image-keyboard-response","91","183215","0.0-7.0-3.9","","","img_on","","","","","",""
"null","<div style=""font-size:60px;""> </div>","null","html-keyboard-response","92","183517","0.0-7.0-4.9","","","fixation_3","","","","","",""
"null","","null","html-keyboard-response","93","183524","0.0-7.0-5.9","","","test","rightarrow","1","1","FALSE","FALSE",""
"null","<div style=""font-size:60px;""> </div>","null","html-keyboard-response","94","183825","0.0-7.0-6.9","","","fixation_4","","","","","",""
"590.1149999990594","arrows.png","39","image-keyboard-response","95","184418","0.0-7.0-7.9","","","test","rightarrow","1","1","FALSE","FALSE","true"
"null","<p style=""color: green; font-size:300%;"">correct: $7.50</p>","null","html-keyboard-response","96","185670","0.0-7.0-8.9","","","","","","","","",""
"null","<div style=""font-size:60px;""> </div>","null","html-keyboard-response","97","186974","0.0-7.0-0.10","","","fixation_1","","","","","",""
"null","","null","image-keyboard-response","98","186982","0.0-7.0-1.10","","","test","leftarrow","0","1","FALSE","FALSE",""
"null","<div style=""font-size:60px;""> </div>","null","html-keyboard-response","99","187286","0.0-7.0-2.10","","","fixation_2","","","","","",""
"null","img_4.bmp","null","image-keyboard-response","100","188289","0.0-7.0-3.10","","","img_on","","","","","",""
"null","<div style=""font-size:60px;""> </div>","null","html-keyboard-response","101","188590","0.0-7.0-4.10","","","fixation_3","","","","","",""
"null","","null","html-keyboard-response","102","188597","0.0-7.0-5.10","","","test","leftarrow","0","1","FALSE","FALSE",""
"null","<div style=""font-size:60px;""> </div>","null","html-keyboard-response","103","188898","0.0-7.0-6.10","","","fixation_4","","","","","",""
"572.4599999957718","arrows.png","37","image-keyboard-response","104","189472","0.0-7.0-7.10","","","test","leftarrow","0","1","FALSE","FALSE","true"
"null","<p style=""color: green; font-size:300%;"">correct: $2.50</p>","null","html-keyboard-response","105","190723","0.0-7.0-8.10","","","","","","","","",""
"null","<div style=""font-size:60px;""> </div>","null","html-keyboard-response","106","191275","0.0-7.0-0.11","","","fixation_1","","","","","",""
"null","","null","image-keyboard-response","107","191281","0.0-7.0-1.11","","","test","downarrow","0","1","FALSE","FALSE",""
"null","<div style=""font-size:60px;""> </div>","null","html-keyboard-response","108","191584","0.0-7.0-2.11","","","fixation_2","","","","","",""
"null","img_3.bmp","null","image-keyboard-response","109","192586","0.0-7.0-3.11","","","img_on","","","","","",""
"null","<div style=""font-size:60px;""> </div>","null","html-keyboard-response","110","192888","0.0-7.0-4.11","","","fixation_3","","","","","",""
"null","","null","html-keyboard-response","111","192894","0.0-7.0-5.11","","","test","downarrow","0","1","FALSE","FALSE",""
"null","<div style=""font-size:60px;""> </div>","null","html-keyboard-response","112","193198","0.0-7.0-6.11","","","fixation_4","","","","","",""
"564.3700000000536","arrows.png","40","image-keyboard-response","113","193764","0.0-7.0-7.11","","","test","downarrow","0","1","FALSE","FALSE","true"
"null","<p style=""color: green; font-size:300%;"">correct: $2.50</p>","null","html-keyboard-response","114","195018","0.0-7.0-8.11","","","","","","","","",""
"null","<div style=""font-size:60px;""> </div>","null","html-keyboard-response","115","196072","0.0-7.0-0.12","","","fixation_1","","","","","",""
"null","","null","image-keyboard-response","116","196089","0.0-7.0-1.12","","","test","downarrow","0","1","FALSE","FALSE",""
"null","<div style=""font-size:60px;""> </div>","null","html-keyboard-response","117","196391","0.0-7.0-2.12","","","fixation_2","","","","","",""
"null","img_3.bmp","null","image-keyboard-response","118","197400","0.0-7.0-3.12","","","img_on","","","","","",""
"null","<div style=""font-size:60px;""> </div>","null","html-keyboard-response","119","197702","0.0-7.0-4.12","","","fixation_3","","","","","",""
"null","","null","html-keyboard-response","120","197707","0.0-7.0-5.12","","","test","downarrow","0","1","FALSE","FALSE",""
"null","<div style=""font-size:60px;""> </div>","null","html-keyboard-response","121","198009","0.0-7.0-6.12","","","fixation_4","","","","","",""
"564.3599999966682","arrows.png","40","image-keyboard-response","122","198574","0.0-7.0-7.12","","","test","downarrow","0","1","FALSE","FALSE","true"
"null","<p style=""color: green; font-size:300%;"">correct: $2.50</p>","null","html-keyboard-response","123","199827","0.0-7.0-8.12","","","","","","","","",""
"null","<div style=""font-size:60px;""> </div>","null","html-keyboard-response","124","201130","0.0-7.0-0.13","","","fixation_1","","","","","",""
"null","","null","image-keyboard-response","125","201137","0.0-7.0-1.13","","","test","rightarrow","1","1","FALSE","FALSE",""
"null","<div style=""font-size:60px;""> </div>","null","html-keyboard-response","126","201440","0.0-7.0-2.13","","","fixation_2","","","","","",""
"null","img_2.bmp","null","image-keyboard-response","127","202443","0.0-7.0-3.13","","","img_on","","","","","",""
"null","<div style=""font-size:60px;""> </div>","null","html-keyboard-response","128","202745","0.0-7.0-4.13","","","fixation_3","","","","","",""
"null","","null","html-keyboard-response","129","202751","0.0-7.0-5.13","","","test","rightarrow","1","1","FALSE","FALSE",""
"null","<div style=""font-size:60px;""> </div>","null","html-keyboard-response","130","203053","0.0-7.0-6.13","","","fixation_4","","","","","",""
"743.1849999993574","arrows.png","39","image-keyboard-response","131","203798","0.0-7.0-7.13","","","test","rightarrow","1","1","FALSE","FALSE","true"
"null","<p style=""color: green; font-size:300%;"">correct: $7.50</p>","null","html-keyboard-response","132","205053","0.0-7.0-8.13","","","","","","","","",""
"null","<div style=""font-size:60px;""> </div>","null","html-keyboard-response","133","205605","0.0-7.0-0.14","","","fixation_1","","","","","",""
"null","","null","image-keyboard-response","134","205610","0.0-7.0-1.14","","","test","leftarrow","0","1","FALSE","FALSE",""
"null","<div style=""font-size:60px;""> </div>","null","html-keyboard-response","135","205911","0.0-7.0-2.14","","","fixation_2","","","","","",""
"null","img_4.bmp","null","image-keyboard-response","136","206913","0.0-7.0-3.14","","","img_on","","","","","",""
"null","<div style=""font-size:60px;""> </div>","null","html-keyboard-response","137","207215","0.0-7.0-4.14","","","fixation_3","","","","","",""
"null","","null","html-keyboard-response","138","207222","0.0-7.0-5.14","","","test","leftarrow","0","1","FALSE","FALSE",""
"null","<div style=""font-size:60px;""> </div>","null","html-keyboard-response","139","207524","0.0-7.0-6.14","","","fixation_4","","","","","",""
"567.575000000943","arrows.png","37","image-keyboard-response","140","208094","0.0-7.0-7.14","","","test","leftarrow","0","1","FALSE","FALSE","true"
"null","<p style=""color: green; font-size:300%;"">correct: $2.50</p>","null","html-keyboard-response","141","209347","0.0-7.0-8.14","","","","","","","","",""
"null","<div style=""font-size:60px;""> </div>","null","html-keyboard-response","142","210150","0.0-7.0-0.15","","","fixation_1","","","","","",""
"null","","null","image-keyboard-response","143","210158","0.0-7.0-1.15","","","test","uparrow","1","1","FALSE","FALSE",""
"null","<div style=""font-size:60px;""> </div>","null","html-keyboard-response","144","210463","0.0-7.0-2.15","","","fixation_2","","","","","",""
"null","img_1.bmp","null","image-keyboard-response","145","211466","0.0-7.0-3.15","","","img_on","","","","","",""
"null","<div style=""font-size:60px;""> </div>","null","html-keyboard-response","146","211767","0.0-7.0-4.15","","","fixation_3","","","","","",""
"null","","null","html-keyboard-response","147","211772","0.0-7.0-5.15","","","test","uparrow","1","1","FALSE","FALSE",""
"null","<div style=""font-size:60px;""> </div>","null","html-keyboard-response","148","212074","0.0-7.0-6.15","","","fixation_4","","","","","",""
"713.8500000000931","arrows.png","38","image-keyboard-response","149","212790","0.0-7.0-7.15","","","test","uparrow","1","1","FALSE","FALSE","true"
"null","<p style=""color: green; font-size:300%;"">correct: $7.50</p>","null","html-keyboard-response","150","214043","0.0-7.0-8.15","","","","","","","","",""
"null","<div style=""font-size:60px;""> </div>","null","html-keyboard-response","151","215345","0.0-7.0-0.16","","","fixation_1","","","","","",""
"null","","null","image-keyboard-response","152","215350","0.0-7.0-1.16","","","test","uparrow","1","1","FALSE","FALSE",""
"null","<div style=""font-size:60px;""> </div>","null","html-keyboard-response","153","215652","0.0-7.0-2.16","","","fixation_2","","","","","",""
"null","img_1.bmp","null","image-keyboard-response","154","216654","0.0-7.0-3.16","","","img_on","","","","","",""
"null","<div style=""font-size:60px;""> </div>","null","html-keyboard-response","155","216956","0.0-7.0-4.16","","","fixation_3","","","","","",""
"null","","null","html-keyboard-response","156","216961","0.0-7.0-5.16","","","test","uparrow","1","1","FALSE","FALSE",""
"null","<div style=""font-size:60px;""> </div>","null","html-keyboard-response","157","217262","0.0-7.0-6.16","","","fixation_4","","","","","",""
"685.7649999947171","arrows.png","38","image-keyboard-response","158","217949","0.0-7.0-7.16","","","test","uparrow","1","1","FALSE","FALSE","true"
"null","<p style=""color: green; font-size:300%;"">correct: $7.50</p>","null","html-keyboard-response","159","219202","0.0-7.0-8.16","","","","","","","","",""
"null","<div style=""font-size:60px;""> </div>","null","html-keyboard-response","160","220005","0.0-7.0-0.17","","","fixation_1","","","","","",""
"null","","null","image-keyboard-response","161","220012","0.0-7.0-1.17","","","test","leftarrow","0","1","FALSE","FALSE",""
"null","<div style=""font-size:60px;""> </div>","null","html-keyboard-response","162","220314","0.0-7.0-2.17","","","fixation_2","","","","","",""
"null","img_4.bmp","null","image-keyboard-response","163","221318","0.0-7.0-3.17","","","img_on","","","","","",""
"null","<div style=""font-size:60px;""> </div>","null","html-keyboard-response","164","221620","0.0-7.0-4.17","","","fixation_3","","","","","",""
"null","","null","html-keyboard-response","165","221626","0.0-7.0-5.17","","","test","leftarrow","0","1","FALSE","FALSE",""
"null","<div style=""font-size:60px;""> </div>","null","html-keyboard-response","166","221927","0.0-7.0-6.17","","","fixation_4","","","","","",""
"466.3100000034319","arrows.png","37","image-keyboard-response","167","222396","0.0-7.0-7.17","","","test","leftarrow","0","1","FALSE","FALSE","true"
"null","<p style=""color: green; font-size:300%;"">correct: $2.50</p>","null","html-keyboard-response","168","223653","0.0-7.0-8.17","","","","","","","","",""
"null","<div style=""font-size:60px;""> </div>","null","html-keyboard-response","169","224456","0.0-7.0-0.18","","","fixation_1","","","","","",""
"null","","null","image-keyboard-response","170","224464","0.0-7.0-1.18","","","test","downarrow","0","1","FALSE","FALSE",""
"null","<div style=""font-size:60px;""> </div>","null","html-keyboard-response","171","224767","0.0-7.0-2.18","","","fixation_2","","","","","",""
"null","img_3.bmp","null","image-keyboard-response","172","225770","0.0-7.0-3.18","","","img_on","","","","","",""
"null","<div style=""font-size:60px;""> </div>","null","html-keyboard-response","173","226072","0.0-7.0-4.18","","","fixation_3","","","","","",""
"null","","null","html-keyboard-response","174","226079","0.0-7.0-5.18","","","test","downarrow","0","1","FALSE","FALSE",""
"null","<div style=""font-size:60px;""> </div>","null","html-keyboard-response","175","226382","0.0-7.0-6.18","","","fixation_4","","","","","",""
"526.5599999984261","arrows.png","40","image-keyboard-response","176","226911","0.0-7.0-7.18","","","test","downarrow","0","1","FALSE","FALSE","true"
"null","<p style=""color: green; font-size:300%;"">correct: $2.50</p>","null","html-keyboard-response","177","228166","0.0-7.0-8.18","","","","","","","","",""
"null","<div style=""font-size:60px;""> </div>","null","html-keyboard-response","178","229721","0.0-7.0-0.19","","","fixation_1","","","","","",""
"null","","null","image-keyboard-response","179","229729","0.0-7.0-1.19","","","test","rightarrow","1","1","FALSE","FALSE",""
"null","<div style=""font-size:60px;""> </div>","null","html-keyboard-response","180","230032","0.0-7.0-2.19","","","fixation_2","","","","","",""
"null","img_2.bmp","null","image-keyboard-response","181","231035","0.0-7.0-3.19","","","img_on","","","","","",""
"null","<div style=""font-size:60px;""> </div>","null","html-keyboard-response","182","231338","0.0-7.0-4.19","","","fixation_3","","","","","",""
"null","","null","html-keyboard-response","183","231344","0.0-7.0-5.19","","","test","rightarrow","1","1","FALSE","FALSE",""
"null","<div style=""font-size:60px;""> </div>","null","html-keyboard-response","184","231647","0.0-7.0-6.19","","","fixation_4","","","","","",""
"593.5600000011618","arrows.png","39","image-keyboard-response","185","232243","0.0-7.0-7.19","","","test","rightarrow","1","1","FALSE","FALSE","true"
"null","<p style=""color: green; font-size:300%;"">correct: $7.50</p>","null","html-keyboard-response","186","233498","0.0-7.0-8.19","","","","","","","","",""
"null","<div style=""font-size:60px;""> </div>","null","html-keyboard-response","187","234051","0.0-7.0-0.20","","","fixation_1","","","","","",""
"null","","null","image-keyboard-response","188","234059","0.0-7.0-1.20","","","test","uparrow","1","1","FALSE","FALSE",""
"null","<div style=""font-size:60px;""> </div>","null","html-keyboard-response","189","234361","0.0-7.0-2.20","","","fixation_2","","","","","",""
"null","img_1.bmp","null","image-keyboard-response","190","235364","0.0-7.0-3.20","","","img_on","","","","","",""
"null","<div style=""font-size:60px;""> </div>","null","html-keyboard-response","191","235666","0.0-7.0-4.20","","","fixation_3","","","","","",""
"null","","null","html-keyboard-response","192","235672","0.0-7.0-5.20","","","test","uparrow","1","1","FALSE","FALSE",""
"null","<div style=""font-size:60px;""> </div>","null","html-keyboard-response","193","235973","0.0-7.0-6.20","","","fixation_4","","","","","",""
"617.419999995036","arrows.png","38","image-keyboard-response","194","236593","0.0-7.0-7.20","","","test","uparrow","1","1","FALSE","FALSE","true"
"null","<p style=""color: green; font-size:300%;"">correct: $7.50</p>","null","html-keyboard-response","195","237857","0.0-7.0-8.20","","","","","","","","",""
"null","<div style=""font-size:60px;""> </div>","null","html-keyboard-response","196","238910","0.0-7.0-0.21","","","fixation_1","","","","","",""
"null","","null","image-keyboard-response","197","238916","0.0-7.0-1.21","","","test","rightarrow","1","1","FALSE","FALSE",""
"null","<div style=""font-size:60px;""> </div>","null","html-keyboard-response","198","239218","0.0-7.0-2.21","","","fixation_2","","","","","",""
"null","img_2.bmp","null","image-keyboard-response","199","240221","0.0-7.0-3.21","","","img_on","","","","","",""
"null","<div style=""font-size:60px;""> </div>","null","html-keyboard-response","200","240525","0.0-7.0-4.21","","","fixation_3","","","","","",""
"null","","null","html-keyboard-response","201","240531","0.0-7.0-5.21","","","test","rightarrow","1","1","FALSE","FALSE",""
"null","<div style=""font-size:60px;""> </div>","null","html-keyboard-response","202","240833","0.0-7.0-6.21","","","fixation_4","","","","","",""
"472.56000000197673","arrows.png","39","image-keyboard-response","203","241307","0.0-7.0-7.21","","","test","rightarrow","1","1","FALSE","FALSE","true"
"null","<p style=""color: green; font-size:300%;"">correct: $7.50</p>","null","html-keyboard-response","204","242562","0.0-7.0-8.21","","","","","","","","",""
"null","<div style=""font-size:60px;""> </div>","null","html-keyboard-response","205","243366","0.0-7.0-0.22","","","fixation_1","","","","","",""
"null","","null","image-keyboard-response","206","243373","0.0-7.0-1.22","","","test","downarrow","0","1","FALSE","FALSE",""
"null","<div style=""font-size:60px;""> </div>","null","html-keyboard-response","207","243676","0.0-7.0-2.22","","","fixation_2","","","","","",""
"null","img_3.bmp","null","image-keyboard-response","208","244679","0.0-7.0-3.22","","","img_on","","","","","",""
"null","<div style=""font-size:60px;""> </div>","null","html-keyboard-response","209","244982","0.0-7.0-4.22","","","fixation_3","","","","","",""
"null","","null","html-keyboard-response","210","244988","0.0-7.0-5.22","","","test","downarrow","0","1","FALSE","FALSE",""
"null","<div style=""font-size:60px;""> </div>","null","html-keyboard-response","211","245290","0.0-7.0-6.22","","","fixation_4","","","","","",""
"529.7300000020186","arrows.png","40","image-keyboard-response","212","245822","0.0-7.0-7.22","","","test","downarrow","0","1","FALSE","FALSE","true"
"null","<p style=""color: green; font-size:300%;"">correct: $2.50</p>","null","html-keyboard-response","213","247076","0.0-7.0-8.22","","","","","","","","",""
"null","<div style=""font-size:60px;""> </div>","null","html-keyboard-response","214","248379","0.0-7.0-0.23","","","fixation_1","","","","","",""
"null","","null","image-keyboard-response","215","248388","0.0-7.0-1.23","","","test","leftarrow","0","1","FALSE","FALSE",""
"null","<div style=""font-size:60px;""> </div>","null","html-keyboard-response","216","248690","0.0-7.0-2.23","","","fixation_2","","","","","",""
"null","img_4.bmp","null","image-keyboard-response","217","249693","0.0-7.0-3.23","","","img_on","","","","","",""
"null","<div style=""font-size:60px;""> </div>","null","html-keyboard-response","218","249995","0.0-7.0-4.23","","","fixation_3","","","","","",""
"null","","null","html-keyboard-response","219","250002","0.0-7.0-5.23","","","test","leftarrow","0","1","FALSE","FALSE",""
"null","<div style=""font-size:60px;""> </div>","null","html-keyboard-response","220","250304","0.0-7.0-6.23","","","fixation_4","","","","","",""
"479.1650000042864","arrows.png","37","image-keyboard-response","221","250785","0.0-7.0-7.23","","","test","leftarrow","0","1","FALSE","FALSE","true"
"null","<p style=""color: green; font-size:300%;"">correct: $2.50</p>","null","html-keyboard-response","222","252041","0.0-7.0-8.23","","","","","","","","",""
"null","<div style=""font-size:60px;""> </div>","null","html-keyboard-response","223","252608","0.0-7.0-0.24","","","fixation_1","","","","","",""
"null","","null","image-keyboard-response","224","252615","0.0-7.0-1.24","","","test","leftarrow","1","2","FALSE","FALSE",""
"null","<div style=""font-size:60px;""> </div>","null","html-keyboard-response","225","252918","0.0-7.0-2.24","","","fixation_2","","","","","",""
"null","img_7.bmp","null","image-keyboard-response","226","253921","0.0-7.0-3.24","","","img_on","","","","","",""
"null","<div style=""font-size:60px;""> </div>","null","html-keyboard-response","227","254224","0.0-7.0-4.24","","","fixation_3","","","","","",""
"null","","null","html-keyboard-response","228","254230","0.0-7.0-5.24","","","test","leftarrow","1","2","FALSE","FALSE",""
"null","<div style=""font-size:60px;""> </div>","null","html-keyboard-response","229","254532","0.0-7.0-6.24","","","fixation_4","","","","","",""
"990.4000000024098","arrows.png","40","image-keyboard-response","230","255525","0.0-7.0-7.24","","","test","leftarrow","1","2","FALSE","FALSE","false"
"null","<p style=""color: red; font-size:300%;"">incorrect: $0</p>","null","html-keyboard-response","231","256780","0.0-7.0-8.24","","","","","","","","",""
"null","<div style=""font-size:60px;""> </div>","null","html-keyboard-response","232","258083","0.0-7.0-0.25","","","fixation_1","","","","","",""
"null","","null","image-keyboard-response","233","258092","0.0-7.0-1.25","","","test","downarrow","1","2","FALSE","FALSE",""
"null","<div style=""font-size:60px;""> </div>","null","html-keyboard-response","234","258396","0.0-7.0-2.25","","","fixation_2","","","","","",""
"null","img_6.bmp","null","image-keyboard-response","235","259398","0.0-7.0-3.25","","","img_on","","","","","",""
"null","<div style=""font-size:60px;""> </div>","null","html-keyboard-response","236","259700","0.0-7.0-4.25","","","fixation_3","","","","","",""
"null","","null","html-keyboard-response","237","259706","0.0-7.0-5.25","","","test","downarrow","1","2","FALSE","FALSE",""
"null","<div style=""font-size:60px;""> </div>","null","html-keyboard-response","238","260013","0.0-7.0-6.25","","","fixation_4","","","","","",""
"1090.7450000013341","arrows.png","39","image-keyboard-response","239","261106","0.0-7.0-7.25","","","test","downarrow","1","2","FALSE","FALSE","false"
"null","<p style=""color: red; font-size:300%;"">incorrect: $0</p>","null","html-keyboard-response","240","262360","0.0-7.0-8.25","","","","","","","","",""
"null","<div style=""font-size:60px;""> </div>","null","html-keyboard-response","241","263914","0.0-7.0-0.26","","","fixation_1","","","","","",""
"null","","null","image-keyboard-response","242","263920","0.0-7.0-1.26","","","test","uparrow","0","2","FALSE","FALSE",""
"null","<div style=""font-size:60px;""> </div>","null","html-keyboard-response","243","264225","0.0-7.0-2.26","","","fixation_2","","","","","",""
"null","img_8.bmp","null","image-keyboard-response","244","265230","0.0-7.0-3.26","","","img_on","","","","","",""
"null","<div style=""font-size:60px;""> </div>","null","html-keyboard-response","245","265533","0.0-7.0-4.26","","","fixation_3","","","","","",""
"null","","null","html-keyboard-response","246","265539","0.0-7.0-5.26","","","test","uparrow","0","2","FALSE","FALSE",""
"null","<div style=""font-size:60px;""> </div>","null","html-keyboard-response","247","265841","0.0-7.0-6.26","","","fixation_4","","","","","",""
"667.62000000017","arrows.png","40","image-keyboard-response","248","266511","0.0-7.0-7.26","","","test","uparrow","0","2","FALSE","FALSE","false"
"null","<p style=""color: red; font-size:300%;"">incorrect: $0</p>","null","html-keyboard-response","249","267764","0.0-7.0-8.26","","","","","","","","",""
"null","<div style=""font-size:60px;""> </div>","null","html-keyboard-response","250","269318","0.0-7.0-0.27","","","fixation_1","","","","","",""
"null","","null","image-keyboard-response","251","269325","0.0-7.0-1.27","","","test","rightarrow","0","2","FALSE","FALSE",""
"null","<div style=""font-size:60px;""> </div>","null","html-keyboard-response","252","269627","0.0-7.0-2.27","","","fixation_2","","","","","",""
"null","img_5.bmp","null","image-keyboard-response","253","270629","0.0-7.0-3.27","","","img_on","","","","","",""
"null","<div style=""font-size:60px;""> </div>","null","html-keyboard-response","254","270931","0.0-7.0-4.27","","","fixation_3","","","","","",""
"null","","null","html-keyboard-response","255","270938","0.0-7.0-5.27","","","test","rightarrow","0","2","FALSE","FALSE",""
"null","<div style=""font-size:60px;""> </div>","null","html-keyboard-response","256","271240","0.0-7.0-6.27","","","fixation_4","","","","","",""
"706.1749999993481","arrows.png","38","image-keyboard-response","257","271949","0.0-7.0-7.27","","","test","rightarrow","0","2","FALSE","FALSE","false"
"null","<p style=""color: red; font-size:300%;"">incorrect: $0</p>","null","html-keyboard-response","258","273205","0.0-7.0-8.27","","","","","","","","",""
"null","<div style=""font-size:60px;""> </div>","null","html-keyboard-response","259","274508","0.0-7.0-0.28","","","fixation_1","","","","","",""
"null","","null","image-keyboard-response","260","274516","0.0-7.0-1.28","","","test","leftarrow","1","2","FALSE","FALSE",""
"null","<div style=""font-size:60px;""> </div>","null","html-keyboard-response","261","274818","0.0-7.0-2.28","","","fixation_2","","","","","",""
"null","img_7.bmp","null","image-keyboard-response","262","275821","0.0-7.0-3.28","","","img_on","","","","","",""
"null","<div style=""font-size:60px;""> </div>","null","html-keyboard-response","263","276123","0.0-7.0-4.28","","","fixation_3","","","","","",""
"null","","null","html-keyboard-response","264","276130","0.0-7.0-5.28","","","test","leftarrow","1","2","FALSE","FALSE",""
"null","<div style=""font-size:60px;""> </div>","null","html-keyboard-response","265","276432","0.0-7.0-6.28","","","fixation_4","","","","","",""
"628.7400000001071","arrows.png","37","image-keyboard-response","266","277064","0.0-7.0-7.28","","","test","leftarrow","1","2","FALSE","FALSE","true"
"null","<p style=""color: green; font-size:300%;"">correct: $7.50</p>","null","html-keyboard-response","267","278316","0.0-7.0-8.28","","","","","","","","",""
"null","<div style=""font-size:60px;""> </div>","null","html-keyboard-response","268","279620","0.0-7.0-0.29","","","fixation_1","","","","","",""
"null","","null","image-keyboard-response","269","279626","0.0-7.0-1.29","","","test","uparrow","0","2","FALSE","FALSE",""
"null","<div style=""font-size:60px;""> </div>","null","html-keyboard-response","270","279928","0.0-7.0-2.29","","","fixation_2","","","","","",""
"null","img_8.bmp","null","image-keyboard-response","271","280931","0.0-7.0-3.29","","","img_on","","","","","",""
"null","<div style=""font-size:60px;""> </div>","null","html-keyboard-response","272","281233","0.0-7.0-4.29","","","fixation_3","","","","","",""
"null","","null","html-keyboard-response","273","281240","0.0-7.0-5.29","","","test","uparrow","0","2","FALSE","FALSE",""
"null","<div style=""font-size:60px;""> </div>","null","html-keyboard-response","274","281542","0.0-7.0-6.29","","","fixation_4","","","","","",""
"614.2999999938183","arrows.png","38","image-keyboard-response","275","282159","0.0-7.0-7.29","","","test","uparrow","0","2","FALSE","FALSE","true"
"null","<p style=""color: green; font-size:300%;"">correct: $2.50</p>","null","html-keyboard-response","276","283413","0.0-7.0-8.29","","","","","","","","",""
"null","<div style=""font-size:60px;""> </div>","null","html-keyboard-response","277","284466","0.0-7.0-0.30","","","fixation_1","","","","","",""
"null","","null","image-keyboard-response","278","284475","0.0-7.0-1.30","","","test","rightarrow","0","2","FALSE","FALSE",""
"null","<div style=""font-size:60px;""> </div>","null","html-keyboard-response","279","284778","0.0-7.0-2.30","","","fixation_2","","","","","",""
"null","img_5.bmp","null","image-keyboard-response","280","285782","0.0-7.0-3.30","","","img_on","","","","","",""
"null","<div style=""font-size:60px;""> </div>","null","html-keyboard-response","281","286084","0.0-7.0-4.30","","","fixation_3","","","","","",""
"null","","null","html-keyboard-response","282","286091","0.0-7.0-5.30","","","test","rightarrow","0","2","FALSE","FALSE",""
"null","<div style=""font-size:60px;""> </div>","null","html-keyboard-response","283","286395","0.0-7.0-6.30","","","fixation_4","","","","","",""
"610.1599999965401","arrows.png","40","image-keyboard-response","284","287007","0.0-7.0-7.30","","","test","rightarrow","0","2","FALSE","FALSE","false"
"null","<p style=""color: red; font-size:300%;"">incorrect: $0</p>","null","html-keyboard-response","285","288261","0.0-7.0-8.30","","","","","","","","",""
"null","<div style=""font-size:60px;""> </div>","null","html-keyboard-response","286","289814","0.0-7.0-0.31","","","fixation_1","","","","","",""
"null","","null","image-keyboard-response","287","289820","0.0-7.0-1.31","","","test","downarrow","1","2","FALSE","FALSE",""
"null","<div style=""font-size:60px;""> </div>","null","html-keyboard-response","288","290124","0.0-7.0-2.31","","","fixation_2","","","","","",""
"null","img_6.bmp","null","image-keyboard-response","289","291127","0.0-7.0-3.31","","","img_on","","","","","",""
"null","<div style=""font-size:60px;""> </div>","null","html-keyboard-response","290","291429","0.0-7.0-4.31","","","fixation_3","","","","","",""
"null","","null","html-keyboard-response","291","291435","0.0-7.0-5.31","","","test","downarrow","1","2","FALSE","FALSE",""
"null","<div style=""font-size:60px;""> </div>","null","html-keyboard-response","292","291739","0.0-7.0-6.31","","","fixation_4","","","","","",""
"580.2000000039698","arrows.png","40","image-keyboard-response","293","292322","0.0-7.0-7.31","","","test","downarrow","1","2","FALSE","FALSE","true"
"null","<p style=""color: green; font-size:300%;"">correct: $7.50</p>","null","html-keyboard-response","294","293577","0.0-7.0-8.31","","","","","","","","",""
"null","<div style=""font-size:60px;""> </div>","null","html-keyboard-response","295","294132","0.0-7.0-0.32","","","fixation_1","","","","","",""
"null","","null","image-keyboard-response","296","294139","0.0-7.0-1.32","","","test","downarrow","1","2","FALSE","FALSE",""
"null","<div style=""font-size:60px;""> </div>","null","html-keyboard-response","297","294441","0.0-7.0-2.32","","","fixation_2","","","","","",""
"null","img_6.bmp","null","image-keyboard-response","298","295447","0.0-7.0-3.32","","","img_on","","","","","",""
"null","<div style=""font-size:60px;""> </div>","null","html-keyboard-response","299","295754","0.0-7.0-4.32","","","fixation_3","","","","","",""
"null","","null","html-keyboard-response","300","295761","0.0-7.0-5.32","","","test","downarrow","1","2","FALSE","FALSE",""
"null","<div style=""font-size:60px;""> </div>","null","html-keyboard-response","301","296062","0.0-7.0-6.32","","","fixation_4","","","","","",""
"492.6350000023376","arrows.png","40","image-keyboard-response","302","296557","0.0-7.0-7.32","","","test","downarrow","1","2","FALSE","FALSE","true"
"null","<p style=""color: green; font-size:300%;"">correct: $7.50</p>","null","html-keyboard-response","303","297811","0.0-7.0-8.32","","","","","","","","",""
"null","<div style=""font-size:60px;""> </div>","null","html-keyboard-response","304","298365","0.0-7.0-0.33","","","fixation_1","","","","","",""
"null","","null","image-keyboard-response","305","298371","0.0-7.0-1.33","","","test","uparrow","0","2","FALSE","FALSE",""
"null","<div style=""font-size:60px;""> </div>","null","html-keyboard-response","306","298673","0.0-7.0-2.33","","","fixation_2","","","","","",""
"null","img_8.bmp","null","image-keyboard-response","307","299676","0.0-7.0-3.33","","","img_on","","","","","",""
"null","<div style=""font-size:60px;""> </div>","null","html-keyboard-response","308","299981","0.0-7.0-4.33","","","fixation_3","","","","","",""
"null","","null","html-keyboard-response","309","299990","0.0-7.0-5.33","","","test","uparrow","0","2","FALSE","FALSE",""
"null","<div style=""font-size:60px;""> </div>","null","html-keyboard-response","310","300292","0.0-7.0-6.33","","","fixation_4","","","","","",""
"580.2800000019488","arrows.png","37","image-keyboard-response","311","300875","0.0-7.0-7.33","","","test","uparrow","0","2","FALSE","FALSE","false"
"null","<p style=""color: red; font-size:300%;"">incorrect: $0</p>","null","html-keyboard-response","312","302129","0.0-7.0-8.33","","","","","","","","",""
"null","<div style=""font-size:60px;""> </div>","null","html-keyboard-response","313","303431","0.0-7.0-0.34","","","fixation_1","","","","","",""
"null","","null","image-keyboard-response","314","303439","0.0-7.0-1.34","","","test","leftarrow","1","2","FALSE","FALSE",""
"null","<div style=""font-size:60px;""> </div>","null","html-keyboard-response","315","303741","0.0-7.0-2.34","","","fixation_2","","","","","",""
"null","img_7.bmp","null","image-keyboard-response","316","304745","0.0-7.0-3.34","","","img_on","","","","","",""
"null","<div style=""font-size:60px;""> </div>","null","html-keyboard-response","317","305048","0.0-7.0-4.34","","","fixation_3","","","","","",""
"null","","null","html-keyboard-response","318","305055","0.0-7.0-5.34","","","test","leftarrow","1","2","FALSE","FALSE",""
"null","<div style=""font-size:60px;""> </div>","null","html-keyboard-response","319","305356","0.0-7.0-6.34","","","fixation_4","","","","","",""
"1690.1100000031875","arrows.png","38","image-keyboard-response","320","307050","0.0-7.0-7.34","","","test","leftarrow","1","2","FALSE","FALSE","false"
"null","<p style=""color: red; font-size:300%;"">incorrect: $0</p>","null","html-keyboard-response","321","308303","0.0-7.0-8.34","","","","","","","","",""
"null","<div style=""font-size:60px;""> </div>","null","html-keyboard-response","322","309856","0.0-7.0-0.35","","","fixation_1","","","","","",""
"null","","null","image-keyboard-response","323","309864","0.0-7.0-1.35","","","test","rightarrow","0","2","FALSE","FALSE",""
"null","<div style=""font-size:60px;""> </div>","null","html-keyboard-response","324","310167","0.0-7.0-2.35","","","fixation_2","","","","","",""
"null","img_5.bmp","null","image-keyboard-response","325","311171","0.0-7.0-3.35","","","img_on","","","","","",""
"null","<div style=""font-size:60px;""> </div>","null","html-keyboard-response","326","311475","0.0-7.0-4.35","","","fixation_3","","","","","",""
"null","","null","html-keyboard-response","327","311481","0.0-7.0-5.35","","","test","rightarrow","0","2","FALSE","FALSE",""
"null","<div style=""font-size:60px;""> </div>","null","html-keyboard-response","328","311784","0.0-7.0-6.35","","","fixation_4","","","","","",""
"1106.2499999970896","arrows.png","39","image-keyboard-response","329","312892","0.0-7.0-7.35","","","test","rightarrow","0","2","FALSE","FALSE","true"
"null","<p style=""color: green; font-size:300%;"">correct: $2.50</p>","null","html-keyboard-response","330","314146","0.0-7.0-8.35","","","","","","","","",""
"null","<div style=""font-size:60px;""> </div>","null","html-keyboard-response","331","315699","0.0-7.0-0.36","","","fixation_1","","","","","",""
"null","","null","image-keyboard-response","332","315706","0.0-7.0-1.36","","","test","leftarrow","1","2","FALSE","FALSE",""
"null","<div style=""font-size:60px;""> </div>","null","html-keyboard-response","333","316009","0.0-7.0-2.36","","","fixation_2","","","","","",""
"null","img_7.bmp","null","image-keyboard-response","334","317011","0.0-7.0-3.36","","","img_on","","","","","",""
"null","<div style=""font-size:60px;""> </div>","null","html-keyboard-response","335","317314","0.0-7.0-4.36","","","fixation_3","","","","","",""
"null","","null","html-keyboard-response","336","317322","0.0-7.0-5.36","","","test","leftarrow","1","2","FALSE","FALSE",""
"null","<div style=""font-size:60px;""> </div>","null","html-keyboard-response","337","317626","0.0-7.0-6.36","","","fixation_4","","","","","",""
"1089.4249999983003","arrows.png","38","image-keyboard-response","338","318718","0.0-7.0-7.36","","","test","leftarrow","1","2","FALSE","FALSE","false"
"null","<p style=""color: red; font-size:300%;"">incorrect: $0</p>","null","html-keyboard-response","339","319971","0.0-7.0-8.36","","","","","","","","",""
"null","<div style=""font-size:60px;""> </div>","null","html-keyboard-response","340","321525","0.0-7.0-0.37","","","fixation_1","","","","","",""
"null","","null","image-keyboard-response","341","321532","0.0-7.0-1.37","","","test","uparrow","0","2","FALSE","FALSE",""
"null","<div style=""font-size:60px;""> </div>","null","html-keyboard-response","342","321835","0.0-7.0-2.37","","","fixation_2","","","","","",""
"null","img_8.bmp","null","image-keyboard-response","343","322850","0.0-7.0-3.37","","","img_on","","","","","",""
"null","<div style=""font-size:60px;""> </div>","null","html-keyboard-response","344","323151","0.0-7.0-4.37","","","fixation_3","","","","","",""
"null","","null","html-keyboard-response","345","323160","0.0-7.0-5.37","","","test","uparrow","0","2","FALSE","FALSE",""
"null","<div style=""font-size:60px;""> </div>","null","html-keyboard-response","346","323467","0.0-7.0-6.37","","","fixation_4","","","","","",""
"726.634999999078","arrows.png","38","image-keyboard-response","347","324195","0.0-7.0-7.37","","","test","uparrow","0","2","FALSE","FALSE","true"
"null","<p style=""color: green; font-size:300%;"">correct: $2.50</p>","null","html-keyboard-response","348","325459","0.0-7.0-8.37","","","","","","","","",""
"null","<div style=""font-size:60px;""> </div>","null","html-keyboard-response","349","326019","0.0-7.0-0.38","","","fixation_1","","","","","",""
"null","","null","image-keyboard-response","350","326025","0.0-7.0-1.38","","","test","rightarrow","0","2","FALSE","FALSE",""
"null","<div style=""font-size:60px;""> </div>","null","html-keyboard-response","351","326327","0.0-7.0-2.38","","","fixation_2","","","","","",""
"null","img_5.bmp","null","image-keyboard-response","352","327329","0.0-7.0-3.38","","","img_on","","","","","",""
"null","<div style=""font-size:60px;""> </div>","null","html-keyboard-response","353","327631","0.0-7.0-4.38","","","fixation_3","","","","","",""
"null","","null","html-keyboard-response","354","327636","0.0-7.0-5.38","","","test","rightarrow","0","2","FALSE","FALSE",""
"null","<div style=""font-size:60px;""> </div>","null","html-keyboard-response","355","327937","0.0-7.0-6.38","","","fixation_4","","","","","",""
"579.9499999993714","arrows.png","39","image-keyboard-response","356","328518","0.0-7.0-7.38","","","test","rightarrow","0","2","FALSE","FALSE","true"
"null","<p style=""color: green; font-size:300%;"">correct: $2.50</p>","null","html-keyboard-response","357","329770","0.0-7.0-8.38","","","","","","","","",""
"null","<div style=""font-size:60px;""> </div>","null","html-keyboard-response","358","330322","0.0-7.0-0.39","","","fixation_1","","","","","",""
"null","","null","image-keyboard-response","359","330328","0.0-7.0-1.39","","","test","downarrow","1","2","FALSE","FALSE",""
"null","<div style=""font-size:60px;""> </div>","null","html-keyboard-response","360","330630","0.0-7.0-2.39","","","fixation_2","","","","","",""
"null","img_6.bmp","null","image-keyboard-response","361","331633","0.0-7.0-3.39","","","img_on","","","","","",""
"null","<div style=""font-size:60px;""> </div>","null","html-keyboard-response","362","331934","0.0-7.0-4.39","","","fixation_3","","","","","",""
"null","","null","html-keyboard-response","363","331940","0.0-7.0-5.39","","","test","downarrow","1","2","FALSE","FALSE",""
"null","<div style=""font-size:60px;""> </div>","null","html-keyboard-response","364","332242","0.0-7.0-6.39","","","fixation_4","","","","","",""
"465.57499999471474","arrows.png","40","image-keyboard-response","365","332708","0.0-7.0-7.39","","","test","downarrow","1","2","FALSE","FALSE","true"
"null","<p style=""color: green; font-size:300%;"">correct: $7.50</p>","null","html-keyboard-response","366","333962","0.0-7.0-8.39","","","","","","","","",""
"null","<div style=""font-size:60px;""> </div>","null","html-keyboard-response","367","335017","0.0-7.0-0.40","","","fixation_1","","","","","",""
"null","","null","image-keyboard-response","368","335024","0.0-7.0-1.40","","","test","uparrow","0","2","FALSE","FALSE",""
"null","<div style=""font-size:60px;""> </div>","null","html-keyboard-response","369","335326","0.0-7.0-2.40","","","fixation_2","","","","","",""
"null","img_8.bmp","null","image-keyboard-response","370","336328","0.0-7.0-3.40","","","img_on","","","","","",""
"null","<div style=""font-size:60px;""> </div>","null","html-keyboard-response","371","336629","0.0-7.0-4.40","","","fixation_3","","","","","",""
"null","","null","html-keyboard-response","372","336636","0.0-7.0-5.40","","","test","uparrow","0","2","FALSE","FALSE",""
"null","<div style=""font-size:60px;""> </div>","null","html-keyboard-response","373","336938","0.0-7.0-6.40","","","fixation_4","","","","","",""
"444.2350000026636","arrows.png","37","image-keyboard-response","374","337383","0.0-7.0-7.40","","","test","uparrow","0","2","FALSE","FALSE","false"
"null","<p style=""color: red; font-size:300%;"">incorrect: $0</p>","null","html-keyboard-response","375","338638","0.0-7.0-8.40","","","","","","","","",""
"null","<div style=""font-size:60px;""> </div>","null","html-keyboard-response","376","340202","0.0-7.0-0.41","","","fixation_1","","","","","",""
"null","","null","image-keyboard-response","377","340209","0.0-7.0-1.41","","","test","leftarrow","1","2","FALSE","FALSE",""
"null","<div style=""font-size:60px;""> </div>","null","html-keyboard-response","378","340510","0.0-7.0-2.41","","","fixation_2","","","","","",""
"null","img_7.bmp","null","image-keyboard-response","379","341512","0.0-7.0-3.41","","","img_on","","","","","",""
"null","<div style=""font-size:60px;""> </div>","null","html-keyboard-response","380","341813","0.0-7.0-4.41","","","fixation_3","","","","","",""
"null","","null","html-keyboard-response","381","341819","0.0-7.0-5.41","","","test","leftarrow","1","2","FALSE","FALSE",""
"null","<div style=""font-size:60px;""> </div>","null","html-keyboard-response","382","342121","0.0-7.0-6.41","","","fixation_4","","","","","",""
"941.8599999989965","arrows.png","37","image-keyboard-response","383","343065","0.0-7.0-7.41","","","test","leftarrow","1","2","FALSE","FALSE","true"
"null","<p style=""color: green; font-size:300%;"">correct: $7.50</p>","null","html-keyboard-response","384","344318","0.0-7.0-8.41","","","","","","","","",""
"null","<div style=""font-size:60px;""> </div>","null","html-keyboard-response","385","344869","0.0-7.0-0.42","","","fixation_1","","","","","",""
"null","","null","image-keyboard-response","386","344875","0.0-7.0-1.42","","","test","downarrow","1","2","FALSE","FALSE",""
"null","<div style=""font-size:60px;""> </div>","null","html-keyboard-response","387","345178","0.0-7.0-2.42","","","fixation_2","","","","","",""
"null","img_6.bmp","null","image-keyboard-response","388","346182","0.0-7.0-3.42","","","img_on","","","","","",""
"null","<div style=""font-size:60px;""> </div>","null","html-keyboard-response","389","346484","0.0-7.0-4.42","","","fixation_3","","","","","",""
"null","","null","html-keyboard-response","390","346492","0.0-7.0-5.42","","","test","downarrow","1","2","FALSE","FALSE",""
"null","<div style=""font-size:60px;""> </div>","null","html-keyboard-response","391","346794","0.0-7.0-6.42","","","fixation_4","","","","","",""
"524.6149999948102","arrows.png","40","image-keyboard-response","392","347320","0.0-7.0-7.42","","","test","downarrow","1","2","FALSE","FALSE","true"
"null","<p style=""color: green; font-size:300%;"">correct: $7.50</p>","null","html-keyboard-response","393","348573","0.0-7.0-8.42","","","","","","","","",""
"null","<div style=""font-size:60px;""> </div>","null","html-keyboard-response","394","349379","0.0-7.0-0.43","","","fixation_1","","","","","",""
"null","","null","image-keyboard-response","395","349385","0.0-7.0-1.43","","","test","rightarrow","0","2","FALSE","FALSE",""
"null","<div style=""font-size:60px;""> </div>","null","html-keyboard-response","396","349688","0.0-7.0-2.43","","","fixation_2","","","","","",""
"null","img_5.bmp","null","image-keyboard-response","397","350690","0.0-7.0-3.43","","","img_on","","","","","",""
"null","<div style=""font-size:60px;""> </div>","null","html-keyboard-response","398","350993","0.0-7.0-4.43","","","fixation_3","","","","","",""
"null","","null","html-keyboard-response","399","350999","0.0-7.0-5.43","","","test","rightarrow","0","2","FALSE","FALSE",""
"null","<div style=""font-size:60px;""> </div>","null","html-keyboard-response","400","351301","0.0-7.0-6.43","","","fixation_4","","","","","",""
"390.31999999861","arrows.png","39","image-keyboard-response","401","351693","0.0-7.0-7.43","","","test","rightarrow","0","2","FALSE","FALSE","true"
"null","<p style=""color: green; font-size:300%;"">correct: $2.50</p>","null","html-keyboard-response","402","352953","0.0-7.0-8.43","","","","","","","","",""
"null","<div style=""font-size:60px;""> </div>","null","html-keyboard-response","403","353756","0.0-7.0-0.44","","","fixation_1","","","","","",""
"null","","null","image-keyboard-response","404","353762","0.0-7.0-1.44","","","test","downarrow","1","2","FALSE","FALSE",""
"null","<div style=""font-size:60px;""> </div>","null","html-keyboard-response","405","354065","0.0-7.0-2.44","","","fixation_2","","","","","",""
"null","img_6.bmp","null","image-keyboard-response","406","355068","0.0-7.0-3.44","","","img_on","","","","","",""
"null","<div style=""font-size:60px;""> </div>","null","html-keyboard-response","407","355369","0.0-7.0-4.44","","","fixation_3","","","","","",""
"null","","null","html-keyboard-response","408","355375","0.0-7.0-5.44","","","test","downarrow","1","2","FALSE","FALSE",""
"null","<div style=""font-size:60px;""> </div>","null","html-keyboard-response","409","355677","0.0-7.0-6.44","","","fixation_4","","","","","",""
"435.6950000001234","arrows.png","40","image-keyboard-response","410","356114","0.0-7.0-7.44","","","test","downarrow","1","2","FALSE","FALSE","true"
"null","<p style=""color: green; font-size:300%;"">correct: $7.50</p>","null","html-keyboard-response","411","357367","0.0-7.0-8.44","","","","","","","","",""
"null","<div style=""font-size:60px;""> </div>","null","html-keyboard-response","412","358923","0.0-7.0-0.45","","","fixation_1","","","","","",""
"null","","null","image-keyboard-response","413","358931","0.0-7.0-1.45","","","test","rightarrow","0","2","FALSE","FALSE",""
"null","<div style=""font-size:60px;""> </div>","null","html-keyboard-response","414","359233","0.0-7.0-2.45","","","fixation_2","","","","","",""
"null","img_5.bmp","null","image-keyboard-response","415","360238","0.0-7.0-3.45","","","img_on","","","","","",""
"null","<div style=""font-size:60px;""> </div>","null","html-keyboard-response","416","360540","0.0-7.0-4.45","","","fixation_3","","","","","",""
"null","","null","html-keyboard-response","417","360547","0.0-7.0-5.45","","","test","rightarrow","0","2","FALSE","FALSE",""
"null","<div style=""font-size:60px;""> </div>","null","html-keyboard-response","418","360849","0.0-7.0-6.45","","","fixation_4","","","","","",""
"437.5400000062655","arrows.png","39","image-keyboard-response","419","361288","0.0-7.0-7.45","","","test","rightarrow","0","2","FALSE","FALSE","true"
"null","<p style=""color: green; font-size:300%;"">correct: $2.50</p>","null","html-keyboard-response","420","362542","0.0-7.0-8.45","","","","","","","","",""
"null","<div style=""font-size:60px;""> </div>","null","html-keyboard-response","421","363094","0.0-7.0-0.46","","","fixation_1","","","","","",""
"null","","null","image-keyboard-response","422","363100","0.0-7.0-1.46","","","test","uparrow","0","2","FALSE","FALSE",""
"null","<div style=""font-size:60px;""> </div>","null","html-keyboard-response","423","363402","0.0-7.0-2.46","","","fixation_2","","","","","",""
"null","img_8.bmp","null","image-keyboard-response","424","364406","0.0-7.0-3.46","","","img_on","","","","","",""
"null","<div style=""font-size:60px;""> </div>","null","html-keyboard-response","425","364709","0.0-7.0-4.46","","","fixation_3","","","","","",""
"null","","null","html-keyboard-response","426","364715","0.0-7.0-5.46","","","test","uparrow","0","2","FALSE","FALSE",""
"null","<div style=""font-size:60px;""> </div>","null","html-keyboard-response","427","365017","0.0-7.0-6.46","","","fixation_4","","","","","",""
"580.7999999960884","arrows.png","38","image-keyboard-response","428","365600","0.0-7.0-7.46","","","test","uparrow","0","2","FALSE","FALSE","true"
"null","<p style=""color: green; font-size:300%;"">correct: $2.50</p>","null","html-keyboard-response","429","366853","0.0-7.0-8.46","","","","","","","","",""
"null","<div style=""font-size:60px;""> </div>","null","html-keyboard-response","430","367906","0.0-7.0-0.47","","","fixation_1","","","","","",""
"null","","null","image-keyboard-response","431","367912","0.0-7.0-1.47","","","test","leftarrow","1","2","FALSE","FALSE",""
"null","<div style=""font-size:60px;""> </div>","null","html-keyboard-response","432","368215","0.0-7.0-2.47","","","fixation_2","","","","","",""
"null","img_7.bmp","null","image-keyboard-response","433","369219","0.0-7.0-3.47","","","img_on","","","","","",""
"null","<div style=""font-size:60px;""> </div>","null","html-keyboard-response","434","369521","0.0-7.0-4.47","","","fixation_3","","","","","",""
"null","","null","html-keyboard-response","435","369526","0.0-7.0-5.47","","","test","leftarrow","1","2","FALSE","FALSE",""
"null","<div style=""font-size:60px;""> </div>","null","html-keyboard-response","436","369827","0.0-7.0-6.47","","","fixation_4","","","","","",""
"461.6299999979674","arrows.png","37","image-keyboard-response","437","370290","0.0-7.0-7.47","","","test","leftarrow","1","2","FALSE","FALSE","true"
"null","<p style=""color: green; font-size:300%;"">correct: $7.50</p>","null","html-keyboard-response","438","371542","0.0-7.0-8.47","","","","","","","","",""
"null","<div style=""font-size:60px;""> </div>","null","html-keyboard-response","439","372344","0.0-7.0-0.48","","","fixation_1","","","","","",""
"null","","null","image-keyboard-response","440","372354","0.0-7.0-1.48","","","test","leftarrow","0","1","FALSE","FALSE",""
"null","<div style=""font-size:60px;""> </div>","null","html-keyboard-response","441","372662","0.0-7.0-2.48","","","fixation_2","","","","","",""
"null","img_4.bmp","null","image-keyboard-response","442","373667","0.0-7.0-3.48","","","img_on","","","","","",""
"null","<div style=""font-size:60px;""> </div>","null","html-keyboard-response","443","373969","0.0-7.0-4.48","","","fixation_3","","","","","",""
"null","","null","html-keyboard-response","444","373976","0.0-7.0-5.48","","","test","leftarrow","0","1","FALSE","FALSE",""
"null","<div style=""font-size:60px;""> </div>","null","html-keyboard-response","445","374277","0.0-7.0-6.48","","","fixation_4","","","","","",""
"574.4550000017625","arrows.png","37","image-keyboard-response","446","374854","0.0-7.0-7.48","","","test","leftarrow","0","1","FALSE","FALSE","true"
"null","<p style=""color: green; font-size:300%;"">correct: $2.50</p>","null","html-keyboard-response","447","376108","0.0-7.0-8.48","","","","","","","","",""
"null","<div style=""font-size:60px;""> </div>","null","html-keyboard-response","448","376661","0.0-7.0-0.49","","","fixation_1","","","","","",""
"null","","null","image-keyboard-response","449","376667","0.0-7.0-1.49","","","test","downarrow","0","1","FALSE","FALSE",""
"null","<div style=""font-size:60px;""> </div>","null","html-keyboard-response","450","376969","0.0-7.0-2.49","","","fixation_2","","","","","",""
"null","img_3.bmp","null","image-keyboard-response","451","377973","0.0-7.0-3.49","","","img_on","","","","","",""
"null","<div style=""font-size:60px;""> </div>","null","html-keyboard-response","452","378275","0.0-7.0-4.49","","","fixation_3","","","","","",""
"null","","null","html-keyboard-response","453","378281","0.0-7.0-5.49","","","test","downarrow","0","1","FALSE","FALSE",""
"null","<div style=""font-size:60px;""> </div>","null","html-keyboard-response","454","378584","0.0-7.0-6.49","","","fixation_4","","","","","",""
"934.4399999972666","arrows.png","37","image-keyboard-response","455","379521","0.0-7.0-7.49","","","test","downarrow","0","1","FALSE","FALSE","false"
"null","<p style=""color: red; font-size:300%;"">incorrect: $0</p>","null","html-keyboard-response","456","380774","0.0-7.0-8.49","","","","","","","","",""
"null","<div style=""font-size:60px;""> </div>","null","html-keyboard-response","457","381578","0.0-7.0-0.50","","","fixation_1","","","","","",""
"null","","null","image-keyboard-response","458","381584","0.0-7.0-1.50","","","test","rightarrow","1","1","FALSE","FALSE",""
"null","<div style=""font-size:60px;""> </div>","null","html-keyboard-response","459","381886","0.0-7.0-2.50","","","fixation_2","","","","","",""
"null","img_2.bmp","null","image-keyboard-response","460","382901","0.0-7.0-3.50","","","img_on","","","","","",""
"null","<div style=""font-size:60px;""> </div>","null","html-keyboard-response","461","383204","0.0-7.0-4.50","","","fixation_3","","","","","",""
"null","","null","html-keyboard-response","462","383209","0.0-7.0-5.50","","","test","rightarrow","1","1","FALSE","FALSE",""
"null","<div style=""font-size:60px;""> </div>","null","html-keyboard-response","463","383510","0.0-7.0-6.50","","","fixation_4","","","","","",""
"441.6149999960908","arrows.png","39","image-keyboard-response","464","383953","0.0-7.0-7.50","","","test","rightarrow","1","1","FALSE","FALSE","true"
"null","<p style=""color: green; font-size:300%;"">correct: $7.50</p>","null","html-keyboard-response","465","385206","0.0-7.0-8.50","","","","","","","","",""
"null","<div style=""font-size:60px;""> </div>","null","html-keyboard-response","466","386508","0.0-7.0-0.51","","","fixation_1","","","","","",""
"null","","null","image-keyboard-response","467","386514","0.0-7.0-1.51","","","test","uparrow","1","1","FALSE","FALSE",""
"null","<div style=""font-size:60px;""> </div>","null","html-keyboard-response","468","386815","0.0-7.0-2.51","","","fixation_2","","","","","",""
"null","img_1.bmp","null","image-keyboard-response","469","387818","0.0-7.0-3.51","","","img_on","","","","","",""
"null","<div style=""font-size:60px;""> </div>","null","html-keyboard-response","470","388120","0.0-7.0-4.51","","","fixation_3","","","","","",""
"null","","null","html-keyboard-response","471","388126","0.0-7.0-5.51","","","test","uparrow","1","1","FALSE","FALSE",""
"null","<div style=""font-size:60px;""> </div>","null","html-keyboard-response","472","388427","0.0-7.0-6.51","","","fixation_4","","","","","",""
"577.7850000013132","arrows.png","38","image-keyboard-response","473","389007","0.0-7.0-7.51","","","test","uparrow","1","1","FALSE","FALSE","true"
"null","<p style=""color: green; font-size:300%;"">correct: $7.50</p>","null","html-keyboard-response","474","390261","0.0-7.0-8.51","","","","","","","","",""
"null","<div style=""font-size:60px;""> </div>","null","html-keyboard-response","475","391815","0.0-7.0-0.52","","","fixation_1","","","","","",""
"null","","null","image-keyboard-response","476","391822","0.0-7.0-1.52","","","test","leftarrow","0","1","FALSE","FALSE",""
"null","<div style=""font-size:60px;""> </div>","null","html-keyboard-response","477","392124","0.0-7.0-2.52","","","fixation_2","","","","","",""
"null","img_4.bmp","null","image-keyboard-response","478","393128","0.0-7.0-3.52","","","img_on","","","","","",""
"null","<div style=""font-size:60px;""> </div>","null","html-keyboard-response","479","393429","0.0-7.0-4.52","","","fixation_3","","","","","",""
"null","","null","html-keyboard-response","480","393435","0.0-7.0-5.52","","","test","leftarrow","0","1","FALSE","FALSE",""
"null","<div style=""font-size:60px;""> </div>","null","html-keyboard-response","481","393736","0.0-7.0-6.52","","","fixation_4","","","","","",""
"466.7399999962072","arrows.png","37","image-keyboard-response","482","394204","0.0-7.0-7.52","","","test","leftarrow","0","1","FALSE","FALSE","true"
"null","<p style=""color: green; font-size:300%;"">correct: $2.50</p>","null","html-keyboard-response","483","395456","0.0-7.0-8.52","","","","","","","","",""
"null","<div style=""font-size:60px;""> </div>","null","html-keyboard-response","484","396260","0.0-7.0-0.53","","","fixation_1","","","","","",""
"null","","null","image-keyboard-response","485","396269","0.0-7.0-1.53","","","test","rightarrow","1","1","FALSE","FALSE",""
"null","<div style=""font-size:60px;""> </div>","null","html-keyboard-response","486","396571","0.0-7.0-2.53","","","fixation_2","","","","","",""
"null","img_2.bmp","null","image-keyboard-response","487","397574","0.0-7.0-3.53","","","img_on","","","","","",""
"null","<div style=""font-size:60px;""> </div>","null","html-keyboard-response","488","397875","0.0-7.0-4.53","","","fixation_3","","","","","",""
"null","","null","html-keyboard-response","489","397882","0.0-7.0-5.53","","","test","rightarrow","1","1","FALSE","FALSE",""
"null","<div style=""font-size:60px;""> </div>","null","html-keyboard-response","490","398187","0.0-7.0-6.53","","","fixation_4","","","","","",""
"410.59999999561114","arrows.png","39","image-keyboard-response","491","398600","0.0-7.0-7.53","","","test","rightarrow","1","1","FALSE","FALSE","true"
"null","<p style=""color: green; font-size:300%;"">correct: $7.50</p>","null","html-keyboard-response","492","399854","0.0-7.0-8.53","","","","","","","","",""
"null","<div style=""font-size:60px;""> </div>","null","html-keyboard-response","493","400407","0.0-7.0-0.54","","","fixation_1","","","","","",""
"null","","null","image-keyboard-response","494","400413","0.0-7.0-1.54","","","test","downarrow","0","1","FALSE","FALSE",""
"null","<div style=""font-size:60px;""> </div>","null","html-keyboard-response","495","400716","0.0-7.0-2.54","","","fixation_2","","","","","",""
"null","img_3.bmp","null","image-keyboard-response","496","401718","0.0-7.0-3.54","","","img_on","","","","","",""
"null","<div style=""font-size:60px;""> </div>","null","html-keyboard-response","497","402019","0.0-7.0-4.54","","","fixation_3","","","","","",""
"null","","null","html-keyboard-response","498","402024","0.0-7.0-5.54","","","test","downarrow","0","1","FALSE","FALSE",""
"null","<div style=""font-size:60px;""> </div>","null","html-keyboard-response","499","402326","0.0-7.0-6.54","","","fixation_4","","","","","",""
"515.995000001567","arrows.png","40","image-keyboard-response","500","402843","0.0-7.0-7.54","","","test","downarrow","0","1","FALSE","FALSE","true"
"null","<p style=""color: green; font-size:300%;"">correct: $2.50</p>","null","html-keyboard-response","501","404095","0.0-7.0-8.54","","","","","","","","",""
"null","<div style=""font-size:60px;""> </div>","null","html-keyboard-response","502","405148","0.0-7.0-0.55","","","fixation_1","","","","","",""
"null","","null","image-keyboard-response","503","405155","0.0-7.0-1.55","","","test","uparrow","1","1","FALSE","FALSE",""
"null","<div style=""font-size:60px;""> </div>","null","html-keyboard-response","504","405457","0.0-7.0-2.55","","","fixation_2","","","","","",""
"null","img_1.bmp","null","image-keyboard-response","505","406460","0.0-7.0-3.55","","","img_on","","","","","",""
"null","<div style=""font-size:60px;""> </div>","null","html-keyboard-response","506","406762","0.0-7.0-4.55","","","fixation_3","","","","","",""
"null","","null","html-keyboard-response","507","406769","0.0-7.0-5.55","","","test","uparrow","1","1","FALSE","FALSE",""
"null","<div style=""font-size:60px;""> </div>","null","html-keyboard-response","508","407071","0.0-7.0-6.55","","","fixation_4","","","","","",""
"514.6499999973457","arrows.png","38","image-keyboard-response","509","407589","0.0-7.0-7.55","","","test","uparrow","1","1","FALSE","FALSE","true"
"null","<p style=""color: green; font-size:300%;"">correct: $7.50</p>","null","html-keyboard-response","510","408841","0.0-7.0-8.55","","","","","","","","",""
"null","<div style=""font-size:60px;""> </div>","null","html-keyboard-response","511","409397","0.0-7.0-0.56","","","fixation_1","","","","","",""
"null","","null","image-keyboard-response","512","409403","0.0-7.0-1.56","","","test","downarrow","0","1","FALSE","FALSE",""
"null","<div style=""font-size:60px;""> </div>","null","html-keyboard-response","513","409704","0.0-7.0-2.56","","","fixation_2","","","","","",""
"null","img_3.bmp","null","image-keyboard-response","514","410707","0.0-7.0-3.56","","","img_on","","","","","",""
"null","<div style=""font-size:60px;""> </div>","null","html-keyboard-response","515","411009","0.0-7.0-4.56","","","fixation_3","","","","","",""
"null","","null","html-keyboard-response","516","411015","0.0-7.0-5.56","","","test","downarrow","0","1","FALSE","FALSE",""
"null","<div style=""font-size:60px;""> </div>","null","html-keyboard-response","517","411317","0.0-7.0-6.56","","","fixation_4","","","","","",""
"412.61500000109663","arrows.png","40","image-keyboard-response","518","411733","0.0-7.0-7.56","","","test","downarrow","0","1","FALSE","FALSE","true"
"null","<p style=""color: green; font-size:300%;"">correct: $2.50</p>","null","html-keyboard-response","519","412995","0.0-7.0-8.56","","","","","","","","",""
"null","<div style=""font-size:60px;""> </div>","null","html-keyboard-response","520","414049","0.0-7.0-0.57","","","fixation_1","","","","","",""
"null","","null","image-keyboard-response","521","414058","0.0-7.0-1.57","","","test","leftarrow","0","1","FALSE","FALSE",""
"null","<div style=""font-size:60px;""> </div>","null","html-keyboard-response","522","414359","0.0-7.0-2.57","","","fixation_2","","","","","",""
"null","img_4.bmp","null","image-keyboard-response","523","415364","0.0-7.0-3.57","","","img_on","","","","","",""
"null","<div style=""font-size:60px;""> </div>","null","html-keyboard-response","524","415666","0.0-7.0-4.57","","","fixation_3","","","","","",""
"null","","null","html-keyboard-response","525","415672","0.0-7.0-5.57","","","test","leftarrow","0","1","FALSE","FALSE",""
"null","<div style=""font-size:60px;""> </div>","null","html-keyboard-response","526","415974","0.0-7.0-6.57","","","fixation_4","","","","","",""
"385.6099999975413","arrows.png","37","image-keyboard-response","527","416362","0.0-7.0-7.57","","","test","leftarrow","0","1","FALSE","FALSE","true"
"null","<p style=""color: green; font-size:300%;"">correct: $2.50</p>","null","html-keyboard-response","528","417617","0.0-7.0-8.57","","","","","","","","",""
"null","<div style=""font-size:60px;""> </div>","null","html-keyboard-response","529","419169","0.0-7.0-0.58","","","fixation_1","","","","","",""
"null","","null","image-keyboard-response","530","419187","0.0-7.0-1.58","","","test","rightarrow","1","1","FALSE","FALSE",""
"null","<div style=""font-size:60px;""> </div>","null","html-keyboard-response","531","419490","0.0-7.0-2.58","","","fixation_2","","","","","",""
"null","img_2.bmp","null","image-keyboard-response","532","420495","0.0-7.0-3.58","","","img_on","","","","","",""
"null","<div style=""font-size:60px;""> </div>","null","html-keyboard-response","533","420796","0.0-7.0-4.58","","","fixation_3","","","","","",""
"null","","null","html-keyboard-response","534","420802","0.0-7.0-5.58","","","test","rightarrow","1","1","FALSE","FALSE",""
"null","<div style=""font-size:60px;""> </div>","null","html-keyboard-response","535","421105","0.0-7.0-6.58","","","fixation_4","","","","","",""
"410.06999999808613","arrows.png","39","image-keyboard-response","536","421518","0.0-7.0-7.58","","","test","rightarrow","1","1","FALSE","FALSE","true"
"null","<p style=""color: green; font-size:300%;"">correct: $7.50</p>","null","html-keyboard-response","537","422774","0.0-7.0-8.58","","","","","","","","",""
"null","<div style=""font-size:60px;""> </div>","null","html-keyboard-response","538","423828","0.0-7.0-0.59","","","fixation_1","","","","","",""
"null","","null","image-keyboard-response","539","423835","0.0-7.0-1.59","","","test","uparrow","1","1","FALSE","FALSE",""
"null","<div style=""font-size:60px;""> </div>","null","html-keyboard-response","540","424138","0.0-7.0-2.59","","","fixation_2","","","","","",""
"null","img_1.bmp","null","image-keyboard-response","541","425141","0.0-7.0-3.59","","","img_on","","","","","",""
"null","<div style=""font-size:60px;""> </div>","null","html-keyboard-response","542","425443","0.0-7.0-4.59","","","fixation_3","","","","","",""
"null","","null","html-keyboard-response","543","425450","0.0-7.0-5.59","","","test","uparrow","1","1","FALSE","FALSE",""
"null","<div style=""font-size:60px;""> </div>","null","html-keyboard-response","544","425751","0.0-7.0-6.59","","","fixation_4","","","","","",""
"243.1300000025658","arrows.png","38","image-keyboard-response","545","425997","0.0-7.0-7.59","","","test","uparrow","1","1","FALSE","FALSE","true"
"null","<p style=""color: green; font-size:300%;"">correct: $7.50</p>","null","html-keyboard-response","546","427252","0.0-7.0-8.59","","","","","","","","",""
"null","<div style=""font-size:60px;""> </div>","null","html-keyboard-response","547","428305","0.0-7.0-0.60","","","fixation_1","","","","","",""
"null","","null","image-keyboard-response","548","428314","0.0-7.0-1.60","","","test","leftarrow","0","1","FALSE","FALSE",""
"null","<div style=""font-size:60px;""> </div>","null","html-keyboard-response","549","428617","0.0-7.0-2.60","","","fixation_2","","","","","",""
"null","img_4.bmp","null","image-keyboard-response","550","429621","0.0-7.0-3.60","","","img_on","","","","","",""
"null","<div style=""font-size:60px;""> </div>","null","html-keyboard-response","551","429922","0.0-7.0-4.60","","","fixation_3","","","","","",""
"null","","null","html-keyboard-response","552","429932","0.0-7.0-5.60","","","test","leftarrow","0","1","FALSE","FALSE",""
"null","<div style=""font-size:60px;""> </div>","null","html-keyboard-response","553","430235","0.0-7.0-6.60","","","fixation_4","","","","","",""
"498.1499999994412","arrows.png","37","image-keyboard-response","554","430735","0.0-7.0-7.60","","","test","leftarrow","0","1","FALSE","FALSE","true"
"null","<p style=""color: green; font-size:300%;"">correct: $2.50</p>","null","html-keyboard-response","555","431988","0.0-7.0-8.60","","","","","","","","",""
"null","<div style=""font-size:60px;""> </div>","null","html-keyboard-response","556","432793","0.0-7.0-0.61","","","fixation_1","","","","","",""
"null","","null","image-keyboard-response","557","432799","0.0-7.0-1.61","","","test","rightarrow","1","1","FALSE","FALSE",""
"null","<div style=""font-size:60px;""> </div>","null","html-keyboard-response","558","433101","0.0-7.0-2.61","","","fixation_2","","","","","",""
"null","img_2.bmp","null","image-keyboard-response","559","434104","0.0-7.0-3.61","","","img_on","","","","","",""
"null","<div style=""font-size:60px;""> </div>","null","html-keyboard-response","560","434406","0.0-7.0-4.61","","","fixation_3","","","","","",""
"null","","null","html-keyboard-response","561","434413","0.0-7.0-5.61","","","test","rightarrow","1","1","FALSE","FALSE",""
"null","<div style=""font-size:60px;""> </div>","null","html-keyboard-response","562","434717","0.0-7.0-6.61","","","fixation_4","","","","","",""
"444.1999999980908","arrows.png","39","image-keyboard-response","563","435164","0.0-7.0-7.61","","","test","rightarrow","1","1","FALSE","FALSE","true"
"null","<p style=""color: green; font-size:300%;"">correct: $7.50</p>","null","html-keyboard-response","564","436417","0.0-7.0-8.61","","","","","","","","",""
"null","<div style=""font-size:60px;""> </div>","null","html-keyboard-response","565","437970","0.0-7.0-0.62","","","fixation_1","","","","","",""
"null","","null","image-keyboard-response","566","437977","0.0-7.0-1.62","","","test","uparrow","1","1","FALSE","FALSE",""
"null","<div style=""font-size:60px;""> </div>","null","html-keyboard-response","567","438279","0.0-7.0-2.62","","","fixation_2","","","","","",""
"null","img_1.bmp","null","image-keyboard-response","568","439282","0.0-7.0-3.62","","","img_on","","","","","",""
"null","<div style=""font-size:60px;""> </div>","null","html-keyboard-response","569","439585","0.0-7.0-4.62","","","fixation_3","","","","","",""
"null","","null","html-keyboard-response","570","439591","0.0-7.0-5.62","","","test","uparrow","1","1","FALSE","FALSE",""
"null","<div style=""font-size:60px;""> </div>","null","html-keyboard-response","571","439893","0.0-7.0-6.62","","","fixation_4","","","","","",""
"124.4250000017928","arrows.png","38","image-keyboard-response","572","440020","0.0-7.0-7.62","","","test","uparrow","1","1","FALSE","FALSE","true"
"null","<p style=""color: green; font-size:300%;"">correct: $7.50</p>","null","html-keyboard-response","573","441273","0.0-7.0-8.62","","","","","","","","",""
"null","<div style=""font-size:60px;""> </div>","null","html-keyboard-response","574","442577","0.0-7.0-0.63","","","fixation_1","","","","","",""
"null","","null","image-keyboard-response","575","442585","0.0-7.0-1.63","","","test","downarrow","0","1","FALSE","FALSE",""
"null","<div style=""font-size:60px;""> </div>","null","html-keyboard-response","576","442888","0.0-7.0-2.63","","","fixation_2","","","","","",""
"null","img_3.bmp","null","image-keyboard-response","577","443892","0.0-7.0-3.63","","","img_on","","","","","",""
"null","<div style=""font-size:60px;""> </div>","null","html-keyboard-response","578","444194","0.0-7.0-4.63","","","fixation_3","","","","","",""
"null","","null","html-keyboard-response","579","444201","0.0-7.0-5.63","","","test","downarrow","0","1","FALSE","FALSE",""
"null","<div style=""font-size:60px;""> </div>","null","html-keyboard-response","580","444504","0.0-7.0-6.63","","","fixation_4","","","","","",""
"385.27500000054715","arrows.png","40","image-keyboard-response","581","444892","0.0-7.0-7.63","","","test","downarrow","0","1","FALSE","FALSE","true"
"null","<p style=""color: green; font-size:300%;"">correct: $2.50</p>","null","html-keyboard-response","582","446145","0.0-7.0-8.63","","","","","","","","",""
"null","<div style=""font-size:60px;""> </div>","null","html-keyboard-response","583","447199","0.0-7.0-0.64","","","fixation_1","","","","","",""
"null","","null","image-keyboard-response","584","447207","0.0-7.0-1.64","","","test","downarrow","1","2","FALSE","FALSE",""
"null","<div style=""font-size:60px;""> </div>","null","html-keyboard-response","585","447511","0.0-7.0-2.64","","","fixation_2","","","","","",""
"null","img_6.bmp","null","image-keyboard-response","586","448518","0.0-7.0-3.64","","","img_on","","","","","",""
"null","<div style=""font-size:60px;""> </div>","null","html-keyboard-response","587","448820","0.0-7.0-4.64","","","fixation_3","","","","","",""
"null","","null","html-keyboard-response","588","448826","0.0-7.0-5.64","","","test","downarrow","1","2","FALSE","FALSE",""
"null","<div style=""font-size:60px;""> </div>","null","html-keyboard-response","589","449128","0.0-7.0-6.64","","","fixation_4","","","","","",""
"596.6799999951036","arrows.png","40","image-keyboard-response","590","449727","0.0-7.0-7.64","","","test","downarrow","1","2","FALSE","FALSE","true"
"null","<p style=""color: green; font-size:300%;"">correct: $7.50</p>","null","html-keyboard-response","591","450979","0.0-7.0-8.64","","","","","","","","",""
"null","<div style=""font-size:60px;""> </div>","null","html-keyboard-response","592","451781","0.0-7.0-0.65","","","fixation_1","","","","","",""
"null","","null","image-keyboard-response","593","451787","0.0-7.0-1.65","","","test","rightarrow","0","2","FALSE","FALSE",""
"null","<div style=""font-size:60px;""> </div>","null","html-keyboard-response","594","452089","0.0-7.0-2.65","","","fixation_2","","","","","",""
"null","img_5.bmp","null","image-keyboard-response","595","453093","0.0-7.0-3.65","","","img_on","","","","","",""
"null","<div style=""font-size:60px;""> </div>","null","html-keyboard-response","596","453395","0.0-7.0-4.65","","","fixation_3","","","","","",""
"null","","null","html-keyboard-response","597","453402","0.0-7.0-5.65","","","test","rightarrow","0","2","FALSE","FALSE",""
"null","<div style=""font-size:60px;""> </div>","null","html-keyboard-response","598","453706","0.0-7.0-6.65","","","fixation_4","","","","","",""
"555.7750000007218","arrows.png","39","image-keyboard-response","599","454264","0.0-7.0-7.65","","","test","rightarrow","0","2","FALSE","FALSE","true"
"null","<p style=""color: green; font-size:300%;"">correct: $2.50</p>","null","html-keyboard-response","600","455517","0.0-7.0-8.65","","","","","","","","",""
"null","<div style=""font-size:60px;""> </div>","null","html-keyboard-response","601","456070","0.0-7.0-0.66","","","fixation_1","","","","","",""
"null","","null","image-keyboard-response","602","456077","0.0-7.0-1.66","","","test","leftarrow","1","2","FALSE","FALSE",""
"null","<div style=""font-size:60px;""> </div>","null","html-keyboard-response","603","456380","0.0-7.0-2.66","","","fixation_2","","","","","",""
"null","img_7.bmp","null","image-keyboard-response","604","457385","0.0-7.0-3.66","","","img_on","","","","","",""
"null","<div style=""font-size:60px;""> </div>","null","html-keyboard-response","605","457687","0.0-7.0-4.66","","","fixation_3","","","","","",""
"null","","null","html-keyboard-response","606","457693","0.0-7.0-5.66","","","test","leftarrow","1","2","FALSE","FALSE",""
"null","<div style=""font-size:60px;""> </div>","null","html-keyboard-response","607","457995","0.0-7.0-6.66","","","fixation_4","","","","","",""
"550.1499999954831","arrows.png","37","image-keyboard-response","608","458548","0.0-7.0-7.66","","","test","leftarrow","1","2","FALSE","FALSE","true"
"null","<p style=""color: green; font-size:300%;"">correct: $7.50</p>","null","html-keyboard-response","609","459804","0.0-7.0-8.66","","","","","","","","",""
"null","<div style=""font-size:60px;""> </div>","null","html-keyboard-response","610","461357","0.0-7.0-0.67","","","fixation_1","","","","","",""
"null","","null","image-keyboard-response","611","461364","0.0-7.0-1.67","","","test","uparrow","0","2","FALSE","FALSE",""
"null","<div style=""font-size:60px;""> </div>","null","html-keyboard-response","612","461667","0.0-7.0-2.67","","","fixation_2","","","","","",""
"null","img_8.bmp","null","image-keyboard-response","613","462671","0.0-7.0-3.67","","","img_on","","","","","",""
"null","<div style=""font-size:60px;""> </div>","null","html-keyboard-response","614","462973","0.0-7.0-4.67","","","fixation_3","","","","","",""
"null","","null","html-keyboard-response","615","462979","0.0-7.0-5.67","","","test","uparrow","0","2","FALSE","FALSE",""
"null","<div style=""font-size:60px;""> </div>","null","html-keyboard-response","616","463281","0.0-7.0-6.67","","","fixation_4","","","","","",""
"491.78000000392785","arrows.png","38","image-keyboard-response","617","463775","0.0-7.0-7.67","","","test","uparrow","0","2","FALSE","FALSE","true"
"null","<p style=""color: green; font-size:300%;"">correct: $2.50</p>","null","html-keyboard-response","618","465030","0.0-7.0-8.67","","","","","","","","",""
"null","<div style=""font-size:60px;""> </div>","null","html-keyboard-response","619","466084","0.0-7.0-0.68","","","fixation_1","","","","","",""
"null","","null","image-keyboard-response","620","466090","0.0-7.0-1.68","","","test","uparrow","0","2","FALSE","FALSE",""
"null","<div style=""font-size:60px;""> </div>","null","html-keyboard-response","621","466393","0.0-7.0-2.68","","","fixation_2","","","","","",""
"null","img_8.bmp","null","image-keyboard-response","622","467396","0.0-7.0-3.68","","","img_on","","","","","",""
"null","<div style=""font-size:60px;""> </div>","null","html-keyboard-response","623","467697","0.0-7.0-4.68","","","fixation_3","","","","","",""
"null","","null","html-keyboard-response","624","467703","0.0-7.0-5.68","","","test","uparrow","0","2","FALSE","FALSE",""
"null","<div style=""font-size:60px;""> </div>","null","html-keyboard-response","625","468005","0.0-7.0-6.68","","","fixation_4","","","","","",""
"710.0900000004913","arrows.png","38","image-keyboard-response","626","468718","0.0-7.0-7.68","","","test","uparrow","0","2","FALSE","FALSE","true"
"null","<p style=""color: green; font-size:300%;"">correct: $2.50</p>","null","html-keyboard-response","627","469972","0.0-7.0-8.68","","","","","","","","",""
"null","<div style=""font-size:60px;""> </div>","null","html-keyboard-response","628","471525","0.0-7.0-0.69","","","fixation_1","","","","","",""
"null","","null","image-keyboard-response","629","471534","0.0-7.0-1.69","","","test","leftarrow","1","2","FALSE","FALSE",""
"null","<div style=""font-size:60px;""> </div>","null","html-keyboard-response","630","471837","0.0-7.0-2.69","","","fixation_2","","","","","",""
"null","img_7.bmp","null","image-keyboard-response","631","472841","0.0-7.0-3.69","","","img_on","","","","","",""
"null","<div style=""font-size:60px;""> </div>","null","html-keyboard-response","632","473143","0.0-7.0-4.69","","","fixation_3","","","","","",""
"null","","null","html-keyboard-response","633","473150","0.0-7.0-5.69","","","test","leftarrow","1","2","FALSE","FALSE",""
"null","<div style=""font-size:60px;""> </div>","null","html-keyboard-response","634","473452","0.0-7.0-6.69","","","fixation_4","","","","","",""
"941.9449999986682","arrows.png","37","image-keyboard-response","635","474395","0.0-7.0-7.69","","","test","leftarrow","1","2","FALSE","FALSE","true"
"null","<p style=""color: green; font-size:300%;"">correct: $7.50</p>","null","html-keyboard-response","636","475656","0.0-7.0-8.69","","","","","","","","",""
"null","<div style=""font-size:60px;""> </div>","null","html-keyboard-response","637","476222","0.0-7.0-0.70","","","fixation_1","","","","","",""
"null","","null","image-keyboard-response","638","476232","0.0-7.0-1.70","","","test","downarrow","1","2","FALSE","FALSE",""
"null","<div style=""font-size:60px;""> </div>","null","html-keyboard-response","639","476538","0.0-7.0-2.70","","","fixation_2","","","","","",""
"null","img_6.bmp","null","image-keyboard-response","640","477541","0.0-7.0-3.70","","","img_on","","","","","",""
"null","<div style=""font-size:60px;""> </div>","null","html-keyboard-response","641","477843","0.0-7.0-4.70","","","fixation_3","","","","","",""
"null","","null","html-keyboard-response","642","477847","0.0-7.0-5.70","","","test","downarrow","1","2","FALSE","FALSE",""
"null","<div style=""font-size:60px;""> </div>","null","html-keyboard-response","643","478149","0.0-7.0-6.70","","","fixation_4","","","","","",""
"549.8049999951036","arrows.png","40","image-keyboard-response","644","478700","0.0-7.0-7.70","","","test","downarrow","1","2","FALSE","FALSE","true"
"null","<p style=""color: green; font-size:300%;"">correct: $7.50</p>","null","html-keyboard-response","645","479953","0.0-7.0-8.70","","","","","","","","",""
"null","<div style=""font-size:60px;""> </div>","null","html-keyboard-response","646","481257","0.0-7.0-0.71","","","fixation_1","","","","","",""
"null","","null","image-keyboard-response","647","481263","0.0-7.0-1.71","","","test","rightarrow","0","2","FALSE","FALSE",""
"null","<div style=""font-size:60px;""> </div>","null","html-keyboard-response","648","481565","0.0-7.0-2.71","","","fixation_2","","","","","",""
"null","img_5.bmp","null","image-keyboard-response","649","482566","0.0-7.0-3.71","","","img_on","","","","","",""
"null","<div style=""font-size:60px;""> </div>","null","html-keyboard-response","650","482869","0.0-7.0-4.71","","","fixation_3","","","","","",""
"null","","null","html-keyboard-response","651","482874","0.0-7.0-5.71","","","test","rightarrow","0","2","FALSE","FALSE",""
"null","<div style=""font-size:60px;""> </div>","null","html-keyboard-response","652","483176","0.0-7.0-6.71","","","fixation_4","","","","","",""
"467.5050000005285","arrows.png","39","image-keyboard-response","653","483645","0.0-7.0-7.71","","","test","rightarrow","0","2","FALSE","FALSE","true"
"null","<p style=""color: green; font-size:300%;"">correct: $2.50</p>","null","html-keyboard-response","654","484898","0.0-7.0-8.71","","","","","","","","",""
"null","<div style=""font-size:60px;""> </div>","null","html-keyboard-response","655","486200","0.0-7.0-0.72","","","fixation_1","","","","","",""
"null","","null","image-keyboard-response","656","486206","0.0-7.0-1.72","","","test","uparrow","0","2","FALSE","FALSE",""
"null","<div style=""font-size:60px;""> </div>","null","html-keyboard-response","657","486507","0.0-7.0-2.72","","","fixation_2","","","","","",""
"null","img_8.bmp","null","image-keyboard-response","658","487509","0.0-7.0-3.72","","","img_on","","","","","",""
"null","<div style=""font-size:60px;""> </div>","null","html-keyboard-response","659","487810","0.0-7.0-4.72","","","fixation_3","","","","","",""
"null","","null","html-keyboard-response","660","487815","0.0-7.0-5.72","","","test","uparrow","0","2","FALSE","FALSE",""
"null","<div style=""font-size:60px;""> </div>","null","html-keyboard-response","661","488117","0.0-7.0-6.72","","","fixation_4","","","","","",""
"625.8099999977276","arrows.png","38","image-keyboard-response","662","488744","0.0-7.0-7.72","","","test","uparrow","0","2","FALSE","FALSE","true"
"null","<p style=""color: green; font-size:300%;"">correct: $2.50</p>","null","html-keyboard-response","663","489997","0.0-7.0-8.72","","","","","","","","",""
"null","<div style=""font-size:60px;""> </div>","null","html-keyboard-response","664","491052","0.0-7.0-0.73","","","fixation_1","","","","","",""
"null","","null","image-keyboard-response","665","491058","0.0-7.0-1.73","","","test","leftarrow","1","2","FALSE","FALSE",""
"null","<div style=""font-size:60px;""> </div>","null","html-keyboard-response","666","491359","0.0-7.0-2.73","","","fixation_2","","","","","",""
"null","img_7.bmp","null","image-keyboard-response","667","492361","0.0-7.0-3.73","","","img_on","","","","","",""
"null","<div style=""font-size:60px;""> </div>","null","html-keyboard-response","668","492663","0.0-7.0-4.73","","","fixation_3","","","","","",""
"null","","null","html-keyboard-response","669","492668","0.0-7.0-5.73","","","test","leftarrow","1","2","FALSE","FALSE",""
"null","<div style=""font-size:60px;""> </div>","null","html-keyboard-response","670","492970","0.0-7.0-6.73","","","fixation_4","","","","","",""
"470.34500000154367","arrows.png","37","image-keyboard-response","671","493441","0.0-7.0-7.73","","","test","leftarrow","1","2","FALSE","FALSE","true"
"null","<p style=""color: green; font-size:300%;"">correct: $7.50</p>","null","html-keyboard-response","672","494693","0.0-7.0-8.73","","","","","","","","",""
"null","<div style=""font-size:60px;""> </div>","null","html-keyboard-response","673","495502","0.0-7.0-0.74","","","fixation_1","","","","","",""
"null","","null","image-keyboard-response","674","495507","0.0-7.0-1.74","","","test","downarrow","1","2","FALSE","FALSE",""
"null","<div style=""font-size:60px;""> </div>","null","html-keyboard-response","675","495809","0.0-7.0-2.74","","","fixation_2","","","","","",""
"null","img_6.bmp","null","image-keyboard-response","676","496812","0.0-7.0-3.74","","","img_on","","","","","",""
"null","<div style=""font-size:60px;""> </div>","null","html-keyboard-response","677","497115","0.0-7.0-4.74","","","fixation_3","","","","","",""
"null","","null","html-keyboard-response","678","497122","0.0-7.0-5.74","","","test","downarrow","1","2","FALSE","FALSE",""
"null","<div style=""font-size:60px;""> </div>","null","html-keyboard-response","679","497424","0.0-7.0-6.74","","","fixation_4","","","","","",""
"410.7250000015483","arrows.png","40","image-keyboard-response","680","497835","0.0-7.0-7.74","","","test","downarrow","1","2","FALSE","FALSE","true"
"null","<p style=""color: green; font-size:300%;"">correct: $7.50</p>","null","html-keyboard-response","681","499088","0.0-7.0-8.74","","","","","","","","",""
"null","<div style=""font-size:60px;""> </div>","null","html-keyboard-response","682","500640","0.0-7.0-0.75","","","fixation_1","","","","","",""
"null","","null","image-keyboard-response","683","500647","0.0-7.0-1.75","","","test","rightarrow","0","2","FALSE","FALSE",""
"null","<div style=""font-size:60px;""> </div>","null","html-keyboard-response","684","500950","0.0-7.0-2.75","","","fixation_2","","","","","",""
"null","img_5.bmp","null","image-keyboard-response","685","501955","0.0-7.0-3.75","","","img_on","","","","","",""
"null","<div style=""font-size:60px;""> </div>","null","html-keyboard-response","686","502257","0.0-7.0-4.75","","","fixation_3","","","","","",""
"null","","null","html-keyboard-response","687","502262","0.0-7.0-5.75","","","test","rightarrow","0","2","FALSE","FALSE",""
"null","<div style=""font-size:60px;""> </div>","null","html-keyboard-response","688","502563","0.0-7.0-6.75","","","fixation_4","","","","","",""
"496.2500000037835","arrows.png","39","image-keyboard-response","689","503060","0.0-7.0-7.75","","","test","rightarrow","0","2","FALSE","FALSE","true"
"null","<p style=""color: green; font-size:300%;"">correct: $2.50</p>","null","html-keyboard-response","690","504313","0.0-7.0-8.75","","","","","","","","",""
"null","<div style=""font-size:60px;""> </div>","null","html-keyboard-response","691","505116","0.0-7.0-0.76","","","fixation_1","","","","","",""
"null","","null","image-keyboard-response","692","505122","0.0-7.0-1.76","","","test","uparrow","0","2","FALSE","FALSE",""
"null","<div style=""font-size:60px;""> </div>","null","html-keyboard-response","693","505423","0.0-7.0-2.76","","","fixation_2","","","","","",""
"null","img_8.bmp","null","image-keyboard-response","694","506425","0.0-7.0-3.76","","","img_on","","","","","",""
"null","<div style=""font-size:60px;""> </div>","null","html-keyboard-response","695","506727","0.0-7.0-4.76","","","fixation_3","","","","","",""
"null","","null","html-keyboard-response","696","506732","0.0-7.0-5.76","","","test","uparrow","0","2","FALSE","FALSE",""
"null","<div style=""font-size:60px;""> </div>","null","html-keyboard-response","697","507033","0.0-7.0-6.76","","","fixation_4","","","","","",""
"583.1550000002608","arrows.png","38","image-keyboard-response","698","507617","0.0-7.0-7.76","","","test","uparrow","0","2","FALSE","FALSE","true"
"null","<p style=""color: green; font-size:300%;"">correct: $2.50</p>","null","html-keyboard-response","699","508869","0.0-7.0-8.76","","","","","","","","",""
"null","<div style=""font-size:60px;""> </div>","null","html-keyboard-response","700","509673","0.0-7.0-0.77","","","fixation_1","","","","","",""
"null","","null","image-keyboard-response","701","509678","0.0-7.0-1.77","","","test","rightarrow","0","2","FALSE","FALSE",""
"null","<div style=""font-size:60px;""> </div>","null","html-keyboard-response","702","509980","0.0-7.0-2.77","","","fixation_2","","","","","",""
"null","img_5.bmp","null","image-keyboard-response","703","510983","0.0-7.0-3.77","","","img_on","","","","","",""
"null","<div style=""font-size:60px;""> </div>","null","html-keyboard-response","704","511286","0.0-7.0-4.77","","","fixation_3","","","","","",""
"null","","null","html-keyboard-response","705","511292","0.0-7.0-5.77","","","test","rightarrow","0","2","FALSE","FALSE",""
"null","<div style=""font-size:60px;""> </div>","null","html-keyboard-response","706","511593","0.0-7.0-6.77","","","fixation_4","","","","","",""
"463.00000000337604","arrows.png","39","image-keyboard-response","707","512058","0.0-7.0-7.77","","","test","rightarrow","0","2","FALSE","FALSE","true"
