"rt","stimulus","key_press","trial_type","trial_index","time_elapsed","internal_node_id","responses","view_history","test_part","correct_response","outcome","context","cc","sc","correct"
"1706069.700000003","<p><b>Welcome to the Picture Learning Game!</b></p>
      <p>The game will take ~35 minutes to complete, and you can make up to $17.50.</p>
      <p>You must use a desktop or laptop computer computer (no mobile devices).</p>
      <p><em>Press any key to continue.</em></p>","32","html-keyboard-response","0","1706084","0.0-0.0","","","","","","","","",""
"5168.5","","","survey-text","1","1711261","0.0-1.0","{""aws"":""AJDXSXAWDDAEO""}","","","","","","","",""
"9367.90000000596","","","survey-text","2","1720638","0.0-2.0","{""age"":""34"",""english"":""Y"",""handedness"":""R"",""desktop"":""Y""}","","","","","","","",""
"73610.5","","","instructions","3","1794251","0.0-3.0","","[{""page_index"":0,""viewing_time"":2779.39999999851},{""page_index"":1,""viewing_time"":27559.80000000447},{""page_index"":2,""viewing_time"":9772.09999999404},{""page_index"":3,""viewing_time"":12312.30000000447},{""page_index"":4,""viewing_time"":21185.79999999702}]","","","","","","",""
"null","sample1.bmp","null","image-keyboard-response","4","1795255","0.0-4.0","","","","","","","","",""
"183","arrows.png","38","image-keyboard-response","5","1795741","0.0-5.0","","","","","","","","",""
"54821","","","instructions","6","1850562","0.0-6.0","","[{""page_index"":0,""viewing_time"":4664.39999999851},{""page_index"":1,""viewing_time"":2667.89999999851},{""page_index"":2,""viewing_time"":11870.39999999851},{""page_index"":3,""viewing_time"":9106.70000000298},{""page_index"":4,""viewing_time"":21212.5},{""page_index"":5,""viewing_time"":4423.70000000298},{""page_index"":6,""viewing_time"":874.6999999955297}]","","","","","","",""
"null","<div style=""font-size:60px;""> </div>","null","html-keyboard-response","7","1850865","0.0-7.0-0.0","","","fixation_1","","","","","",""
"null","","null","image-keyboard-response","8","1850871","0.0-7.0-1.0","","","test","uparrow","1","1","FALSE","FALSE",""
"null","<div style=""font-size:60px;""> </div>","null","html-keyboard-response","9","1851172","0.0-7.0-2.0","","","fixation_2","","","","","",""
"null","img_1.bmp","null","image-keyboard-response","10","1852173","0.0-7.0-3.0","","","img_on","","","","","",""
"null","<div style=""font-size:60px;""> </div>","null","html-keyboard-response","11","1852474","0.0-7.0-4.0","","","fixation_3","","","","","",""
"null","","null","html-keyboard-response","12","1852480","0.0-7.0-5.0","","","test","uparrow","1","1","FALSE","FALSE",""
"null","<div style=""font-size:60px;""> </div>","null","html-keyboard-response","13","1852781","0.0-7.0-6.0","","","fixation_4","","","","","",""
"473.8999999985099","arrows.png","37","image-keyboard-response","14","1853256","0.0-7.0-7.0","","","test","uparrow","1","1","FALSE","FALSE","false"
"null","<p style=""color: red; font-size:300%;"">incorrect: $0</p>","null","html-keyboard-response","15","1854509","0.0-7.0-8.0","","","","","","","","",""
"null","<div style=""font-size:60px;""> </div>","null","html-keyboard-response","16","1855561","0.0-7.0-0.1","","","fixation_1","","","","","",""
"null","","null","image-keyboard-response","17","1855567","0.0-7.0-1.1","","","test","rightarrow","1","1","FALSE","FALSE",""
"null","<div style=""font-size:60px;""> </div>","null","html-keyboard-response","18","1855868","0.0-7.0-2.1","","","fixation_2","","","","","",""
"null","img_2.bmp","null","image-keyboard-response","19","1856869","0.0-7.0-3.1","","","img_on","","","","","",""
"null","<div style=""font-size:60px;""> </div>","null","html-keyboard-response","20","1857171","0.0-7.0-4.1","","","fixation_3","","","","","",""
"null","","null","html-keyboard-response","21","1857175","0.0-7.0-5.1","","","test","rightarrow","1","1","FALSE","FALSE",""
"null","<div style=""font-size:60px;""> </div>","null","html-keyboard-response","22","1857476","0.0-7.0-6.1","","","fixation_4","","","","","",""
"335.1000000014901","arrows.png","39","image-keyboard-response","23","1857814","0.0-7.0-7.1","","","test","rightarrow","1","1","FALSE","FALSE","true"
"null","<p style=""color: green; font-size:300%;"">correct: $7.50</p>","null","html-keyboard-response","24","1859065","0.0-7.0-8.1","","","","","","","","",""
"null","<div style=""font-size:60px;""> </div>","null","html-keyboard-response","25","1859867","0.0-7.0-0.2","","","fixation_1","","","","","",""
"null","","null","image-keyboard-response","26","1859872","0.0-7.0-1.2","","","test","leftarrow","0","1","FALSE","FALSE",""
"null","<div style=""font-size:60px;""> </div>","null","html-keyboard-response","27","1860173","0.0-7.0-2.2","","","fixation_2","","","","","",""
"null","img_4.bmp","null","image-keyboard-response","28","1861174","0.0-7.0-3.2","","","img_on","","","","","",""
"null","<div style=""font-size:60px;""> </div>","null","html-keyboard-response","29","1861475","0.0-7.0-4.2","","","fixation_3","","","","","",""
"null","","null","html-keyboard-response","30","1861481","0.0-7.0-5.2","","","test","leftarrow","0","1","FALSE","FALSE",""
"null","<div style=""font-size:60px;""> </div>","null","html-keyboard-response","31","1861782","0.0-7.0-6.2","","","fixation_4","","","","","",""
"227.39999999850988","arrows.png","40","image-keyboard-response","32","1862011","0.0-7.0-7.2","","","test","leftarrow","0","1","FALSE","FALSE","false"
"null","<p style=""color: red; font-size:300%;"">incorrect: $0</p>","null","html-keyboard-response","33","1863262","0.0-7.0-8.2","","","","","","","","",""
"null","<div style=""font-size:60px;""> </div>","null","html-keyboard-response","34","1864563","0.0-7.0-0.3","","","fixation_1","","","","","",""
"null","","null","image-keyboard-response","35","1864569","0.0-7.0-1.3","","","test","downarrow","0","1","FALSE","FALSE",""
"null","<div style=""font-size:60px;""> </div>","null","html-keyboard-response","36","1864870","0.0-7.0-2.3","","","fixation_2","","","","","",""
"null","img_3.bmp","null","image-keyboard-response","37","1865872","0.0-7.0-3.3","","","img_on","","","","","",""
"null","<div style=""font-size:60px;""> </div>","null","html-keyboard-response","38","1866174","0.0-7.0-4.3","","","fixation_3","","","","","",""
"null","","null","html-keyboard-response","39","1866178","0.0-7.0-5.3","","","test","downarrow","0","1","FALSE","FALSE",""
"null","<div style=""font-size:60px;""> </div>","null","html-keyboard-response","40","1866479","0.0-7.0-6.3","","","fixation_4","","","","","",""
"352.20000000298023","arrows.png","37","image-keyboard-response","41","1866833","0.0-7.0-7.3","","","test","downarrow","0","1","FALSE","FALSE","false"
"null","<p style=""color: red; font-size:300%;"">incorrect: $0</p>","null","html-keyboard-response","42","1868085","0.0-7.0-8.3","","","","","","","","",""
"null","<div style=""font-size:60px;""> </div>","null","html-keyboard-response","43","1869636","0.0-7.0-0.4","","","fixation_1","","","","","",""
"null","","null","image-keyboard-response","44","1869641","0.0-7.0-1.4","","","test","rightarrow","1","1","FALSE","FALSE",""
"null","<div style=""font-size:60px;""> </div>","null","html-keyboard-response","45","1869942","0.0-7.0-2.4","","","fixation_2","","","","","",""
"null","img_2.bmp","null","image-keyboard-response","46","1870944","0.0-7.0-3.4","","","img_on","","","","","",""
"null","<div style=""font-size:60px;""> </div>","null","html-keyboard-response","47","1871245","0.0-7.0-4.4","","","fixation_3","","","","","",""
"null","","null","html-keyboard-response","48","1871250","0.0-7.0-5.4","","","test","rightarrow","1","1","FALSE","FALSE",""
"null","<div style=""font-size:60px;""> </div>","null","html-keyboard-response","49","1871551","0.0-7.0-6.4","","","fixation_4","","","","","",""
"229.5","arrows.png","39","image-keyboard-response","50","1871782","0.0-7.0-7.4","","","test","rightarrow","1","1","FALSE","FALSE","true"
"null","<p style=""color: green; font-size:300%;"">correct: $7.50</p>","null","html-keyboard-response","51","1873033","0.0-7.0-8.4","","","","","","","","",""
"null","<div style=""font-size:60px;""> </div>","null","html-keyboard-response","52","1873835","0.0-7.0-0.5","","","fixation_1","","","","","",""
"null","","null","image-keyboard-response","53","1873840","0.0-7.0-1.5","","","test","leftarrow","0","1","FALSE","FALSE",""
"null","<div style=""font-size:60px;""> </div>","null","html-keyboard-response","54","1874141","0.0-7.0-2.5","","","fixation_2","","","","","",""
"null","img_4.bmp","null","image-keyboard-response","55","1875142","0.0-7.0-3.5","","","img_on","","","","","",""
"null","<div style=""font-size:60px;""> </div>","null","html-keyboard-response","56","1875443","0.0-7.0-4.5","","","fixation_3","","","","","",""
"null","","null","html-keyboard-response","57","1875448","0.0-7.0-5.5","","","test","leftarrow","0","1","FALSE","FALSE",""
"null","<div style=""font-size:60px;""> </div>","null","html-keyboard-response","58","1875749","0.0-7.0-6.5","","","fixation_4","","","","","",""
"311.5","arrows.png","38","image-keyboard-response","59","1876062","0.0-7.0-7.5","","","test","leftarrow","0","1","FALSE","FALSE","false"
"null","<p style=""color: red; font-size:300%;"">incorrect: $0</p>","null","html-keyboard-response","60","1877313","0.0-7.0-8.5","","","","","","","","",""
"null","<div style=""font-size:60px;""> </div>","null","html-keyboard-response","61","1878614","0.0-7.0-0.6","","","fixation_1","","","","","",""
"null","","null","image-keyboard-response","62","1878620","0.0-7.0-1.6","","","test","uparrow","1","1","FALSE","FALSE",""
"null","<div style=""font-size:60px;""> </div>","null","html-keyboard-response","63","1878921","0.0-7.0-2.6","","","fixation_2","","","","","",""
"null","img_1.bmp","null","image-keyboard-response","64","1879922","0.0-7.0-3.6","","","img_on","","","","","",""
"null","<div style=""font-size:60px;""> </div>","null","html-keyboard-response","65","1880224","0.0-7.0-4.6","","","fixation_3","","","","","",""
"null","","null","html-keyboard-response","66","1880229","0.0-7.0-5.6","","","test","uparrow","1","1","FALSE","FALSE",""
"null","<div style=""font-size:60px;""> </div>","null","html-keyboard-response","67","1880530","0.0-7.0-6.6","","","fixation_4","","","","","",""
"28.399999998509884","arrows.png","40","image-keyboard-response","68","1880560","0.0-7.0-7.6","","","test","uparrow","1","1","FALSE","FALSE","false"
"null","<p style=""color: red; font-size:300%;"">incorrect: $0</p>","null","html-keyboard-response","69","1881812","0.0-7.0-8.6","","","","","","","","",""
"null","<div style=""font-size:60px;""> </div>","null","html-keyboard-response","70","1882616","0.0-7.0-0.7","","","fixation_1","","","","","",""
"null","","null","image-keyboard-response","71","1882621","0.0-7.0-1.7","","","test","downarrow","0","1","FALSE","FALSE",""
"null","<div style=""font-size:60px;""> </div>","null","html-keyboard-response","72","1882922","0.0-7.0-2.7","","","fixation_2","","","","","",""
"null","img_3.bmp","null","image-keyboard-response","73","1883923","0.0-7.0-3.7","","","img_on","","","","","",""
"null","<div style=""font-size:60px;""> </div>","null","html-keyboard-response","74","1884224","0.0-7.0-4.7","","","fixation_3","","","","","",""
"null","","null","html-keyboard-response","75","1884229","0.0-7.0-5.7","","","test","downarrow","0","1","FALSE","FALSE",""
"null","<div style=""font-size:60px;""> </div>","null","html-keyboard-response","76","1884530","0.0-7.0-6.7","","","fixation_4","","","","","",""
"242.29999999701977","arrows.png","38","image-keyboard-response","77","1884774","0.0-7.0-7.7","","","test","downarrow","0","1","FALSE","FALSE","false"
"null","<p style=""color: red; font-size:300%;"">incorrect: $0</p>","null","html-keyboard-response","78","1886025","0.0-7.0-8.7","","","","","","","","",""
"null","<div style=""font-size:60px;""> </div>","null","html-keyboard-response","79","1886826","0.0-7.0-0.8","","","fixation_1","","","","","",""
"null","","null","image-keyboard-response","80","1886833","0.0-7.0-1.8","","","test","downarrow","0","1","FALSE","FALSE",""
"null","<div style=""font-size:60px;""> </div>","null","html-keyboard-response","81","1887133","0.0-7.0-2.8","","","fixation_2","","","","","",""
"null","img_3.bmp","null","image-keyboard-response","82","1888134","0.0-7.0-3.8","","","img_on","","","","","",""
"null","<div style=""font-size:60px;""> </div>","null","html-keyboard-response","83","1888435","0.0-7.0-4.8","","","fixation_3","","","","","",""
"null","","null","html-keyboard-response","84","1888441","0.0-7.0-5.8","","","test","downarrow","0","1","FALSE","FALSE",""
"null","<div style=""font-size:60px;""> </div>","null","html-keyboard-response","85","1888742","0.0-7.0-6.8","","","fixation_4","","","","","",""
"257.1000000014901","arrows.png","37","image-keyboard-response","86","1889000","0.0-7.0-7.8","","","test","downarrow","0","1","FALSE","FALSE","false"
"null","<p style=""color: red; font-size:300%;"">incorrect: $0</p>","null","html-keyboard-response","87","1890252","0.0-7.0-8.8","","","","","","","","",""
"null","<div style=""font-size:60px;""> </div>","null","html-keyboard-response","88","1891053","0.0-7.0-0.9","","","fixation_1","","","","","",""
"null","","null","image-keyboard-response","89","1891060","0.0-7.0-1.9","","","test","uparrow","1","1","FALSE","FALSE",""
"null","<div style=""font-size:60px;""> </div>","null","html-keyboard-response","90","1891361","0.0-7.0-2.9","","","fixation_2","","","","","",""
"null","img_1.bmp","null","image-keyboard-response","91","1892363","0.0-7.0-3.9","","","img_on","","","","","",""
"null","<div style=""font-size:60px;""> </div>","null","html-keyboard-response","92","1892664","0.0-7.0-4.9","","","fixation_3","","","","","",""
"null","","null","html-keyboard-response","93","1892669","0.0-7.0-5.9","","","test","uparrow","1","1","FALSE","FALSE",""
"null","<div style=""font-size:60px;""> </div>","null","html-keyboard-response","94","1892970","0.0-7.0-6.9","","","fixation_4","","","","","",""
"228.40000000596046","arrows.png","38","image-keyboard-response","95","1893200","0.0-7.0-7.9","","","test","uparrow","1","1","FALSE","FALSE","true"
"null","<p style=""color: green; font-size:300%;"">correct: $7.50</p>","null","html-keyboard-response","96","1894452","0.0-7.0-8.9","","","","","","","","",""
"null","<div style=""font-size:60px;""> </div>","null","html-keyboard-response","97","1895753","0.0-7.0-0.10","","","fixation_1","","","","","",""
"null","","null","image-keyboard-response","98","1895758","0.0-7.0-1.10","","","test","leftarrow","0","1","FALSE","FALSE",""
"null","<div style=""font-size:60px;""> </div>","null","html-keyboard-response","99","1896060","0.0-7.0-2.10","","","fixation_2","","","","","",""
"null","img_4.bmp","null","image-keyboard-response","100","1897062","0.0-7.0-3.10","","","img_on","","","","","",""
"null","<div style=""font-size:60px;""> </div>","null","html-keyboard-response","101","1897363","0.0-7.0-4.10","","","fixation_3","","","","","",""
"null","","null","html-keyboard-response","102","1897369","0.0-7.0-5.10","","","test","leftarrow","0","1","FALSE","FALSE",""
"null","<div style=""font-size:60px;""> </div>","null","html-keyboard-response","103","1897670","0.0-7.0-6.10","","","fixation_4","","","","","",""
"244.19999999552965","arrows.png","40","image-keyboard-response","104","1897916","0.0-7.0-7.10","","","test","leftarrow","0","1","FALSE","FALSE","false"
"null","<p style=""color: red; font-size:300%;"">incorrect: $0</p>","null","html-keyboard-response","105","1899167","0.0-7.0-8.10","","","","","","","","",""
"null","<div style=""font-size:60px;""> </div>","null","html-keyboard-response","106","1899969","0.0-7.0-0.11","","","fixation_1","","","","","",""
"null","","null","image-keyboard-response","107","1899974","0.0-7.0-1.11","","","test","rightarrow","1","1","FALSE","FALSE",""
"null","<div style=""font-size:60px;""> </div>","null","html-keyboard-response","108","1900275","0.0-7.0-2.11","","","fixation_2","","","","","",""
"null","img_2.bmp","null","image-keyboard-response","109","1901276","0.0-7.0-3.11","","","img_on","","","","","",""
"null","<div style=""font-size:60px;""> </div>","null","html-keyboard-response","110","1901577","0.0-7.0-4.11","","","fixation_3","","","","","",""
"null","","null","html-keyboard-response","111","1901583","0.0-7.0-5.11","","","test","rightarrow","1","1","FALSE","FALSE",""
"null","<div style=""font-size:60px;""> </div>","null","html-keyboard-response","112","1901883","0.0-7.0-6.11","","","fixation_4","","","","","",""
"141.5","arrows.png","39","image-keyboard-response","113","1902026","0.0-7.0-7.11","","","test","rightarrow","1","1","FALSE","FALSE","true"
"null","<p style=""color: green; font-size:300%;"">correct: $7.50</p>","null","html-keyboard-response","114","1903277","0.0-7.0-8.11","","","","","","","","",""
"null","<div style=""font-size:60px;""> </div>","null","html-keyboard-response","115","1904329","0.0-7.0-0.12","","","fixation_1","","","","","",""
"null","","null","image-keyboard-response","116","1904334","0.0-7.0-1.12","","","test","leftarrow","0","1","FALSE","FALSE",""
"null","<div style=""font-size:60px;""> </div>","null","html-keyboard-response","117","1904636","0.0-7.0-2.12","","","fixation_2","","","","","",""
"null","img_4.bmp","null","image-keyboard-response","118","1905637","0.0-7.0-3.12","","","img_on","","","","","",""
"null","<div style=""font-size:60px;""> </div>","null","html-keyboard-response","119","1905938","0.0-7.0-4.12","","","fixation_3","","","","","",""
"null","","null","html-keyboard-response","120","1905943","0.0-7.0-5.12","","","test","leftarrow","0","1","FALSE","FALSE",""
"null","<div style=""font-size:60px;""> </div>","null","html-keyboard-response","121","1906244","0.0-7.0-6.12","","","fixation_4","","","","","",""
"57.100000001490116","arrows.png","37","image-keyboard-response","122","1906303","0.0-7.0-7.12","","","test","leftarrow","0","1","FALSE","FALSE","true"
"null","<p style=""color: green; font-size:300%;"">correct: $2.50</p>","null","html-keyboard-response","123","1907555","0.0-7.0-8.12","","","","","","","","",""
"null","<div style=""font-size:60px;""> </div>","null","html-keyboard-response","124","1908606","0.0-7.0-0.13","","","fixation_1","","","","","",""
"null","","null","image-keyboard-response","125","1908611","0.0-7.0-1.13","","","test","uparrow","1","1","FALSE","FALSE",""
"null","<div style=""font-size:60px;""> </div>","null","html-keyboard-response","126","1908911","0.0-7.0-2.13","","","fixation_2","","","","","",""
"null","img_1.bmp","null","image-keyboard-response","127","1909913","0.0-7.0-3.13","","","img_on","","","","","",""
"null","<div style=""font-size:60px;""> </div>","null","html-keyboard-response","128","1910214","0.0-7.0-4.13","","","fixation_3","","","","","",""
"null","","null","html-keyboard-response","129","1910219","0.0-7.0-5.13","","","test","uparrow","1","1","FALSE","FALSE",""
"null","<div style=""font-size:60px;""> </div>","null","html-keyboard-response","130","1910520","0.0-7.0-6.13","","","fixation_4","","","","","",""
"34.5","arrows.png","38","image-keyboard-response","131","1910556","0.0-7.0-7.13","","","test","uparrow","1","1","FALSE","FALSE","true"
"null","<p style=""color: green; font-size:300%;"">correct: $7.50</p>","null","html-keyboard-response","132","1911808","0.0-7.0-8.13","","","","","","","","",""
"null","<div style=""font-size:60px;""> </div>","null","html-keyboard-response","133","1913109","0.0-7.0-0.14","","","fixation_1","","","","","",""
"null","","null","image-keyboard-response","134","1913114","0.0-7.0-1.14","","","test","rightarrow","1","1","FALSE","FALSE",""
"null","<div style=""font-size:60px;""> </div>","null","html-keyboard-response","135","1913415","0.0-7.0-2.14","","","fixation_2","","","","","",""
"null","img_2.bmp","null","image-keyboard-response","136","1914417","0.0-7.0-3.14","","","img_on","","","","","",""
"null","<div style=""font-size:60px;""> </div>","null","html-keyboard-response","137","1914718","0.0-7.0-4.14","","","fixation_3","","","","","",""
"null","","null","html-keyboard-response","138","1914723","0.0-7.0-5.14","","","test","rightarrow","1","1","FALSE","FALSE",""
"null","<div style=""font-size:60px;""> </div>","null","html-keyboard-response","139","1915024","0.0-7.0-6.14","","","fixation_4","","","","","",""
"101","arrows.png","39","image-keyboard-response","140","1915127","0.0-7.0-7.14","","","test","rightarrow","1","1","FALSE","FALSE","true"
"null","<p style=""color: green; font-size:300%;"">correct: $7.50</p>","null","html-keyboard-response","141","1916378","0.0-7.0-8.14","","","","","","","","",""
"null","<div style=""font-size:60px;""> </div>","null","html-keyboard-response","142","1917179","0.0-7.0-0.15","","","fixation_1","","","","","",""
"null","","null","image-keyboard-response","143","1917184","0.0-7.0-1.15","","","test","downarrow","0","1","FALSE","FALSE",""
"null","<div style=""font-size:60px;""> </div>","null","html-keyboard-response","144","1917485","0.0-7.0-2.15","","","fixation_2","","","","","",""
"null","img_3.bmp","null","image-keyboard-response","145","1918487","0.0-7.0-3.15","","","img_on","","","","","",""
"null","<div style=""font-size:60px;""> </div>","null","html-keyboard-response","146","1918788","0.0-7.0-4.15","","","fixation_3","","","","","",""
"null","","null","html-keyboard-response","147","1918793","0.0-7.0-5.15","","","test","downarrow","0","1","FALSE","FALSE",""
"null","<div style=""font-size:60px;""> </div>","null","html-keyboard-response","148","1919094","0.0-7.0-6.15","","","fixation_4","","","","","",""
"101.90000000596046","arrows.png","40","image-keyboard-response","149","1919199","0.0-7.0-7.15","","","test","downarrow","0","1","FALSE","FALSE","true"
"null","<p style=""color: green; font-size:300%;"">correct: $2.50</p>","null","html-keyboard-response","150","1920451","0.0-7.0-8.15","","","","","","","","",""
"null","<div style=""font-size:60px;""> </div>","null","html-keyboard-response","151","1921252","0.0-7.0-0.16","","","fixation_1","","","","","",""
"null","","null","image-keyboard-response","152","1921257","0.0-7.0-1.16","","","test","downarrow","0","1","FALSE","FALSE",""
"null","<div style=""font-size:60px;""> </div>","null","html-keyboard-response","153","1921557","0.0-7.0-2.16","","","fixation_2","","","","","",""
"null","img_3.bmp","null","image-keyboard-response","154","1922559","0.0-7.0-3.16","","","img_on","","","","","",""
"null","<div style=""font-size:60px;""> </div>","null","html-keyboard-response","155","1922860","0.0-7.0-4.16","","","fixation_3","","","","","",""
"null","","null","html-keyboard-response","156","1922866","0.0-7.0-5.16","","","test","downarrow","0","1","FALSE","FALSE",""
"null","<div style=""font-size:60px;""> </div>","null","html-keyboard-response","157","1923167","0.0-7.0-6.16","","","fixation_4","","","","","",""
"362.5","arrows.png","40","image-keyboard-response","158","1923531","0.0-7.0-7.16","","","test","downarrow","0","1","FALSE","FALSE","true"
"null","<p style=""color: green; font-size:300%;"">correct: $2.50</p>","null","html-keyboard-response","159","1924782","0.0-7.0-8.16","","","","","","","","",""
"null","<div style=""font-size:60px;""> </div>","null","html-keyboard-response","160","1926083","0.0-7.0-0.17","","","fixation_1","","","","","",""
"null","","null","image-keyboard-response","161","1926088","0.0-7.0-1.17","","","test","uparrow","1","1","FALSE","FALSE",""
"null","<div style=""font-size:60px;""> </div>","null","html-keyboard-response","162","1926388","0.0-7.0-2.17","","","fixation_2","","","","","",""
"null","img_1.bmp","null","image-keyboard-response","163","1927390","0.0-7.0-3.17","","","img_on","","","","","",""
"null","<div style=""font-size:60px;""> </div>","null","html-keyboard-response","164","1927691","0.0-7.0-4.17","","","fixation_3","","","","","",""
"null","","null","html-keyboard-response","165","1927696","0.0-7.0-5.17","","","test","uparrow","1","1","FALSE","FALSE",""
"null","<div style=""font-size:60px;""> </div>","null","html-keyboard-response","166","1927997","0.0-7.0-6.17","","","fixation_4","","","","","",""
"19.200000002980232","arrows.png","39","image-keyboard-response","167","1928017","0.0-7.0-7.17","","","test","uparrow","1","1","FALSE","FALSE","false"
"null","<p style=""color: red; font-size:300%;"">incorrect: $0</p>","null","html-keyboard-response","168","1929268","0.0-7.0-8.17","","","","","","","","",""
"null","<div style=""font-size:60px;""> </div>","null","html-keyboard-response","169","1929819","0.0-7.0-0.18","","","fixation_1","","","","","",""
"null","","null","image-keyboard-response","170","1929825","0.0-7.0-1.18","","","test","leftarrow","0","1","FALSE","FALSE",""
"null","<div style=""font-size:60px;""> </div>","null","html-keyboard-response","171","1930126","0.0-7.0-2.18","","","fixation_2","","","","","",""
"null","img_4.bmp","null","image-keyboard-response","172","1931127","0.0-7.0-3.18","","","img_on","","","","","",""
"null","<div style=""font-size:60px;""> </div>","null","html-keyboard-response","173","1931429","0.0-7.0-4.18","","","fixation_3","","","","","",""
"null","","null","html-keyboard-response","174","1931434","0.0-7.0-5.18","","","test","leftarrow","0","1","FALSE","FALSE",""
"null","<div style=""font-size:60px;""> </div>","null","html-keyboard-response","175","1931735","0.0-7.0-6.18","","","fixation_4","","","","","",""
"0.6999999955296516","arrows.png","37","image-keyboard-response","176","1931737","0.0-7.0-7.18","","","test","leftarrow","0","1","FALSE","FALSE","true"
"null","<p style=""color: green; font-size:300%;"">correct: $2.50</p>","null","html-keyboard-response","177","1932989","0.0-7.0-8.18","","","","","","","","",""
"null","<div style=""font-size:60px;""> </div>","null","html-keyboard-response","178","1934540","0.0-7.0-0.19","","","fixation_1","","","","","",""
"null","","null","image-keyboard-response","179","1934546","0.0-7.0-1.19","","","test","rightarrow","1","1","FALSE","FALSE",""
"null","<div style=""font-size:60px;""> </div>","null","html-keyboard-response","180","1934847","0.0-7.0-2.19","","","fixation_2","","","","","",""
"null","img_2.bmp","null","image-keyboard-response","181","1935848","0.0-7.0-3.19","","","img_on","","","","","",""
"null","<div style=""font-size:60px;""> </div>","null","html-keyboard-response","182","1936149","0.0-7.0-4.19","","","fixation_3","","","","","",""
"null","","null","html-keyboard-response","183","1936154","0.0-7.0-5.19","","","test","rightarrow","1","1","FALSE","FALSE",""
"null","<div style=""font-size:60px;""> </div>","null","html-keyboard-response","184","1936456","0.0-7.0-6.19","","","fixation_4","","","","","",""
"149.10000000149012","arrows.png","39","image-keyboard-response","185","1936607","0.0-7.0-7.19","","","test","rightarrow","1","1","FALSE","FALSE","true"
"null","<p style=""color: green; font-size:300%;"">correct: $7.50</p>","null","html-keyboard-response","186","1937859","0.0-7.0-8.19","","","","","","","","",""
"null","<div style=""font-size:60px;""> </div>","null","html-keyboard-response","187","1939410","0.0-7.0-0.20","","","fixation_1","","","","","",""
"null","","null","image-keyboard-response","188","1939417","0.0-7.0-1.20","","","test","downarrow","0","1","FALSE","FALSE",""
"null","<div style=""font-size:60px;""> </div>","null","html-keyboard-response","189","1939718","0.0-7.0-2.20","","","fixation_2","","","","","",""
"null","img_3.bmp","null","image-keyboard-response","190","1940719","0.0-7.0-3.20","","","img_on","","","","","",""
"null","<div style=""font-size:60px;""> </div>","null","html-keyboard-response","191","1941020","0.0-7.0-4.20","","","fixation_3","","","","","",""
"null","","null","html-keyboard-response","192","1941026","0.0-7.0-5.20","","","test","downarrow","0","1","FALSE","FALSE",""
"null","<div style=""font-size:60px;""> </div>","null","html-keyboard-response","193","1941327","0.0-7.0-6.20","","","fixation_4","","","","","",""
"409.29999999701977","arrows.png","40","image-keyboard-response","194","1941738","0.0-7.0-7.20","","","test","downarrow","0","1","FALSE","FALSE","true"
"null","<p style=""color: green; font-size:300%;"">correct: $2.50</p>","null","html-keyboard-response","195","1942989","0.0-7.0-8.20","","","","","","","","",""
"null","<div style=""font-size:60px;""> </div>","null","html-keyboard-response","196","1944040","0.0-7.0-0.21","","","fixation_1","","","","","",""
"null","","null","image-keyboard-response","197","1944046","0.0-7.0-1.21","","","test","uparrow","1","1","FALSE","FALSE",""
"null","<div style=""font-size:60px;""> </div>","null","html-keyboard-response","198","1944348","0.0-7.0-2.21","","","fixation_2","","","","","",""
"null","img_1.bmp","null","image-keyboard-response","199","1945349","0.0-7.0-3.21","","","img_on","","","","","",""
"null","<div style=""font-size:60px;""> </div>","null","html-keyboard-response","200","1945651","0.0-7.0-4.21","","","fixation_3","","","","","",""
"null","","null","html-keyboard-response","201","1945657","0.0-7.0-5.21","","","test","uparrow","1","1","FALSE","FALSE",""
"null","<div style=""font-size:60px;""> </div>","null","html-keyboard-response","202","1945958","0.0-7.0-6.21","","","fixation_4","","","","","",""
"240","arrows.png","38","image-keyboard-response","203","1946200","0.0-7.0-7.21","","","test","uparrow","1","1","FALSE","FALSE","true"
"null","<p style=""color: green; font-size:300%;"">correct: $7.50</p>","null","html-keyboard-response","204","1947451","0.0-7.0-8.21","","","","","","","","",""
"null","<div style=""font-size:60px;""> </div>","null","html-keyboard-response","205","1948003","0.0-7.0-0.22","","","fixation_1","","","","","",""
"null","","null","image-keyboard-response","206","1948008","0.0-7.0-1.22","","","test","rightarrow","1","1","FALSE","FALSE",""
"null","<div style=""font-size:60px;""> </div>","null","html-keyboard-response","207","1948309","0.0-7.0-2.22","","","fixation_2","","","","","",""
"null","img_2.bmp","null","image-keyboard-response","208","1949311","0.0-7.0-3.22","","","img_on","","","","","",""
"null","<div style=""font-size:60px;""> </div>","null","html-keyboard-response","209","1949612","0.0-7.0-4.22","","","fixation_3","","","","","",""
"null","","null","html-keyboard-response","210","1949618","0.0-7.0-5.22","","","test","rightarrow","1","1","FALSE","FALSE",""
"null","<div style=""font-size:60px;""> </div>","null","html-keyboard-response","211","1949920","0.0-7.0-6.22","","","fixation_4","","","","","",""
"204","arrows.png","39","image-keyboard-response","212","1950125","0.0-7.0-7.22","","","test","rightarrow","1","1","FALSE","FALSE","true"
"null","<p style=""color: green; font-size:300%;"">correct: $7.50</p>","null","html-keyboard-response","213","1951377","0.0-7.0-8.22","","","","","","","","",""
"null","<div style=""font-size:60px;""> </div>","null","html-keyboard-response","214","1952678","0.0-7.0-0.23","","","fixation_1","","","","","",""
"null","","null","image-keyboard-response","215","1952683","0.0-7.0-1.23","","","test","leftarrow","0","1","FALSE","FALSE",""
"null","<div style=""font-size:60px;""> </div>","null","html-keyboard-response","216","1952984","0.0-7.0-2.23","","","fixation_2","","","","","",""
"null","img_4.bmp","null","image-keyboard-response","217","1953986","0.0-7.0-3.23","","","img_on","","","","","",""
"null","<div style=""font-size:60px;""> </div>","null","html-keyboard-response","218","1954287","0.0-7.0-4.23","","","fixation_3","","","","","",""
"null","","null","html-keyboard-response","219","1954292","0.0-7.0-5.23","","","test","leftarrow","0","1","FALSE","FALSE",""
"null","<div style=""font-size:60px;""> </div>","null","html-keyboard-response","220","1954593","0.0-7.0-6.23","","","fixation_4","","","","","",""
"237.20000000298023","arrows.png","37","image-keyboard-response","221","1954832","0.0-7.0-7.23","","","test","leftarrow","0","1","FALSE","FALSE","true"
"null","<p style=""color: green; font-size:300%;"">correct: $2.50</p>","null","html-keyboard-response","222","1956084","0.0-7.0-8.23","","","","","","","","",""
"null","<div style=""font-size:60px;""> </div>","null","html-keyboard-response","223","1957636","0.0-7.0-0.24","","","fixation_1","","","","","",""
"null","","null","image-keyboard-response","224","1957643","0.0-7.0-1.24","","","test","leftarrow","1","2","FALSE","FALSE",""
"null","<div style=""font-size:60px;""> </div>","null","html-keyboard-response","225","1957944","0.0-7.0-2.24","","","fixation_2","","","","","",""
"null","img_7.bmp","null","image-keyboard-response","226","1958945","0.0-7.0-3.24","","","img_on","","","","","",""
"null","<div style=""font-size:60px;""> </div>","null","html-keyboard-response","227","1959247","0.0-7.0-4.24","","","fixation_3","","","","","",""
"null","","null","html-keyboard-response","228","1959252","0.0-7.0-5.24","","","test","leftarrow","1","2","FALSE","FALSE",""
"null","<div style=""font-size:60px;""> </div>","null","html-keyboard-response","229","1959553","0.0-7.0-6.24","","","fixation_4","","","","","",""
"120.89999999850988","arrows.png","40","image-keyboard-response","230","1959676","0.0-7.0-7.24","","","test","leftarrow","1","2","FALSE","FALSE","false"
"null","<p style=""color: red; font-size:300%;"">incorrect: $0</p>","null","html-keyboard-response","231","1960927","0.0-7.0-8.24","","","","","","","","",""
"null","<div style=""font-size:60px;""> </div>","null","html-keyboard-response","232","1962228","0.0-7.0-0.25","","","fixation_1","","","","","",""
"null","","null","image-keyboard-response","233","1962233","0.0-7.0-1.25","","","test","downarrow","1","2","FALSE","FALSE",""
"null","<div style=""font-size:60px;""> </div>","null","html-keyboard-response","234","1962534","0.0-7.0-2.25","","","fixation_2","","","","","",""
"null","img_6.bmp","null","image-keyboard-response","235","1963535","0.0-7.0-3.25","","","img_on","","","","","",""
"null","<div style=""font-size:60px;""> </div>","null","html-keyboard-response","236","1963837","0.0-7.0-4.25","","","fixation_3","","","","","",""
"null","","null","html-keyboard-response","237","1963842","0.0-7.0-5.25","","","test","downarrow","1","2","FALSE","FALSE",""
"null","<div style=""font-size:60px;""> </div>","null","html-keyboard-response","238","1964143","0.0-7.0-6.25","","","fixation_4","","","","","",""
"289.5","arrows.png","37","image-keyboard-response","239","1964434","0.0-7.0-7.25","","","test","downarrow","1","2","FALSE","FALSE","false"
"null","<p style=""color: red; font-size:300%;"">incorrect: $0</p>","null","html-keyboard-response","240","1965685","0.0-7.0-8.25","","","","","","","","",""
"null","<div style=""font-size:60px;""> </div>","null","html-keyboard-response","241","1966987","0.0-7.0-0.26","","","fixation_1","","","","","",""
"null","","null","image-keyboard-response","242","1966994","0.0-7.0-1.26","","","test","uparrow","0","2","FALSE","FALSE",""
"null","<div style=""font-size:60px;""> </div>","null","html-keyboard-response","243","1967294","0.0-7.0-2.26","","","fixation_2","","","","","",""
"null","img_8.bmp","null","image-keyboard-response","244","1968296","0.0-7.0-3.26","","","img_on","","","","","",""
"null","<div style=""font-size:60px;""> </div>","null","html-keyboard-response","245","1968597","0.0-7.0-4.26","","","fixation_3","","","","","",""
"null","","null","html-keyboard-response","246","1968603","0.0-7.0-5.26","","","test","uparrow","0","2","FALSE","FALSE",""
"null","<div style=""font-size:60px;""> </div>","null","html-keyboard-response","247","1968905","0.0-7.0-6.26","","","fixation_4","","","","","",""
"249.69999999552965","arrows.png","40","image-keyboard-response","248","1969156","0.0-7.0-7.26","","","test","uparrow","0","2","FALSE","FALSE","false"
"null","<p style=""color: red; font-size:300%;"">incorrect: $0</p>","null","html-keyboard-response","249","1970408","0.0-7.0-8.26","","","","","","","","",""
"null","<div style=""font-size:60px;""> </div>","null","html-keyboard-response","250","1971459","0.0-7.0-0.27","","","fixation_1","","","","","",""
"null","","null","image-keyboard-response","251","1971464","0.0-7.0-1.27","","","test","rightarrow","0","2","FALSE","FALSE",""
"null","<div style=""font-size:60px;""> </div>","null","html-keyboard-response","252","1971765","0.0-7.0-2.27","","","fixation_2","","","","","",""
"null","img_5.bmp","null","image-keyboard-response","253","1972766","0.0-7.0-3.27","","","img_on","","","","","",""
"null","<div style=""font-size:60px;""> </div>","null","html-keyboard-response","254","1973067","0.0-7.0-4.27","","","fixation_3","","","","","",""
"null","","null","html-keyboard-response","255","1973072","0.0-7.0-5.27","","","test","rightarrow","0","2","FALSE","FALSE",""
"null","<div style=""font-size:60px;""> </div>","null","html-keyboard-response","256","1973374","0.0-7.0-6.27","","","fixation_4","","","","","",""
"243.5","arrows.png","38","image-keyboard-response","257","1973619","0.0-7.0-7.27","","","test","rightarrow","0","2","FALSE","FALSE","false"
"null","<p style=""color: red; font-size:300%;"">incorrect: $0</p>","null","html-keyboard-response","258","1974871","0.0-7.0-8.27","","","","","","","","",""
"null","<div style=""font-size:60px;""> </div>","null","html-keyboard-response","259","1975922","0.0-7.0-0.28","","","fixation_1","","","","","",""
"null","","null","image-keyboard-response","260","1975928","0.0-7.0-1.28","","","test","rightarrow","0","2","FALSE","FALSE",""
"null","<div style=""font-size:60px;""> </div>","null","html-keyboard-response","261","1976229","0.0-7.0-2.28","","","fixation_2","","","","","",""
"null","img_5.bmp","null","image-keyboard-response","262","1977230","0.0-7.0-3.28","","","img_on","","","","","",""
"null","<div style=""font-size:60px;""> </div>","null","html-keyboard-response","263","1977530","0.0-7.0-4.28","","","fixation_3","","","","","",""
"null","","null","html-keyboard-response","264","1977536","0.0-7.0-5.28","","","test","rightarrow","0","2","FALSE","FALSE",""
"null","<div style=""font-size:60px;""> </div>","null","html-keyboard-response","265","1977838","0.0-7.0-6.28","","","fixation_4","","","","","",""
"43.600000001490116","arrows.png","39","image-keyboard-response","266","1977883","0.0-7.0-7.28","","","test","rightarrow","0","2","FALSE","FALSE","true"
"null","<p style=""color: green; font-size:300%;"">correct: $2.50</p>","null","html-keyboard-response","267","1979134","0.0-7.0-8.28","","","","","","","","",""
"null","<div style=""font-size:60px;""> </div>","null","html-keyboard-response","268","1980685","0.0-7.0-0.29","","","fixation_1","","","","","",""
"null","","null","image-keyboard-response","269","1980691","0.0-7.0-1.29","","","test","downarrow","1","2","FALSE","FALSE",""
"null","<div style=""font-size:60px;""> </div>","null","html-keyboard-response","270","1980993","0.0-7.0-2.29","","","fixation_2","","","","","",""
"null","img_6.bmp","null","image-keyboard-response","271","1981995","0.0-7.0-3.29","","","img_on","","","","","",""
"null","<div style=""font-size:60px;""> </div>","null","html-keyboard-response","272","1982297","0.0-7.0-4.29","","","fixation_3","","","","","",""
"null","","null","html-keyboard-response","273","1982302","0.0-7.0-5.29","","","test","downarrow","1","2","FALSE","FALSE",""
"null","<div style=""font-size:60px;""> </div>","null","html-keyboard-response","274","1982603","0.0-7.0-6.29","","","fixation_4","","","","","",""
"32.600000001490116","arrows.png","37","image-keyboard-response","275","1982636","0.0-7.0-7.29","","","test","downarrow","1","2","FALSE","FALSE","false"
"null","<p style=""color: red; font-size:300%;"">incorrect: $0</p>","null","html-keyboard-response","276","1983888","0.0-7.0-8.29","","","","","","","","",""
"null","<div style=""font-size:60px;""> </div>","null","html-keyboard-response","277","1984939","0.0-7.0-0.30","","","fixation_1","","","","","",""
"null","","null","image-keyboard-response","278","1984946","0.0-7.0-1.30","","","test","leftarrow","1","2","FALSE","FALSE",""
"null","<div style=""font-size:60px;""> </div>","null","html-keyboard-response","279","1985247","0.0-7.0-2.30","","","fixation_2","","","","","",""
"null","img_7.bmp","null","image-keyboard-response","280","1986248","0.0-7.0-3.30","","","img_on","","","","","",""
"null","<div style=""font-size:60px;""> </div>","null","html-keyboard-response","281","1986549","0.0-7.0-4.30","","","fixation_3","","","","","",""
"null","","null","html-keyboard-response","282","1986555","0.0-7.0-5.30","","","test","leftarrow","1","2","FALSE","FALSE",""
"null","<div style=""font-size:60px;""> </div>","null","html-keyboard-response","283","1986856","0.0-7.0-6.30","","","fixation_4","","","","","",""
"461.3999999985099","arrows.png","38","image-keyboard-response","284","1987320","0.0-7.0-7.30","","","test","leftarrow","1","2","FALSE","FALSE","false"
"null","<p style=""color: red; font-size:300%;"">incorrect: $0</p>","null","html-keyboard-response","285","1988572","0.0-7.0-8.30","","","","","","","","",""
"null","<div style=""font-size:60px;""> </div>","null","html-keyboard-response","286","1989623","0.0-7.0-0.31","","","fixation_1","","","","","",""
"null","","null","image-keyboard-response","287","1989630","0.0-7.0-1.31","","","test","uparrow","0","2","FALSE","FALSE",""
"null","<div style=""font-size:60px;""> </div>","null","html-keyboard-response","288","1989931","0.0-7.0-2.31","","","fixation_2","","","","","",""
"null","img_8.bmp","null","image-keyboard-response","289","1990933","0.0-7.0-3.31","","","img_on","","","","","",""
"null","<div style=""font-size:60px;""> </div>","null","html-keyboard-response","290","1991235","0.0-7.0-4.31","","","fixation_3","","","","","",""
"null","","null","html-keyboard-response","291","1991240","0.0-7.0-5.31","","","test","uparrow","0","2","FALSE","FALSE",""
"null","<div style=""font-size:60px;""> </div>","null","html-keyboard-response","292","1991541","0.0-7.0-6.31","","","fixation_4","","","","","",""
"126","arrows.png","39","image-keyboard-response","293","1991670","0.0-7.0-7.31","","","test","uparrow","0","2","FALSE","FALSE","false"
"null","<p style=""color: red; font-size:300%;"">incorrect: $0</p>","null","html-keyboard-response","294","1992922","0.0-7.0-8.31","","","","","","","","",""
"null","<div style=""font-size:60px;""> </div>","null","html-keyboard-response","295","1993723","0.0-7.0-0.32","","","fixation_1","","","","","",""
"null","","null","image-keyboard-response","296","1993729","0.0-7.0-1.32","","","test","uparrow","0","2","FALSE","FALSE",""
"null","<div style=""font-size:60px;""> </div>","null","html-keyboard-response","297","1994030","0.0-7.0-2.32","","","fixation_2","","","","","",""
"null","img_8.bmp","null","image-keyboard-response","298","1995032","0.0-7.0-3.32","","","img_on","","","","","",""
"null","<div style=""font-size:60px;""> </div>","null","html-keyboard-response","299","1995333","0.0-7.0-4.32","","","fixation_3","","","","","",""
"null","","null","html-keyboard-response","300","1995339","0.0-7.0-5.32","","","test","uparrow","0","2","FALSE","FALSE",""
"null","<div style=""font-size:60px;""> </div>","null","html-keyboard-response","301","1995640","0.0-7.0-6.32","","","fixation_4","","","","","",""
"260.69999999552965","arrows.png","38","image-keyboard-response","302","1995903","0.0-7.0-7.32","","","test","uparrow","0","2","FALSE","FALSE","true"
"null","<p style=""color: green; font-size:300%;"">correct: $2.50</p>","null","html-keyboard-response","303","1997155","0.0-7.0-8.32","","","","","","","","",""
"null","<div style=""font-size:60px;""> </div>","null","html-keyboard-response","304","1997706","0.0-7.0-0.33","","","fixation_1","","","","","",""
"null","","null","image-keyboard-response","305","1997711","0.0-7.0-1.33","","","test","rightarrow","0","2","FALSE","FALSE",""
"null","<div style=""font-size:60px;""> </div>","null","html-keyboard-response","306","1998012","0.0-7.0-2.33","","","fixation_2","","","","","",""
"null","img_5.bmp","null","image-keyboard-response","307","1999013","0.0-7.0-3.33","","","img_on","","","","","",""
"null","<div style=""font-size:60px;""> </div>","null","html-keyboard-response","308","1999314","0.0-7.0-4.33","","","fixation_3","","","","","",""
"null","","null","html-keyboard-response","309","1999320","0.0-7.0-5.33","","","test","rightarrow","0","2","FALSE","FALSE",""
"null","<div style=""font-size:60px;""> </div>","null","html-keyboard-response","310","1999621","0.0-7.0-6.33","","","fixation_4","","","","","",""
"37.600000001490116","arrows.png","39","image-keyboard-response","311","1999661","0.0-7.0-7.33","","","test","rightarrow","0","2","FALSE","FALSE","true"
"null","<p style=""color: green; font-size:300%;"">correct: $2.50</p>","null","html-keyboard-response","312","2000913","0.0-7.0-8.33","","","","","","","","",""
"null","<div style=""font-size:60px;""> </div>","null","html-keyboard-response","313","2001964","0.0-7.0-0.34","","","fixation_1","","","","","",""
"null","","null","image-keyboard-response","314","2001969","0.0-7.0-1.34","","","test","downarrow","1","2","FALSE","FALSE",""
"null","<div style=""font-size:60px;""> </div>","null","html-keyboard-response","315","2002270","0.0-7.0-2.34","","","fixation_2","","","","","",""
"null","img_6.bmp","null","image-keyboard-response","316","2003271","0.0-7.0-3.34","","","img_on","","","","","",""
"null","<div style=""font-size:60px;""> </div>","null","html-keyboard-response","317","2003572","0.0-7.0-4.34","","","fixation_3","","","","","",""
"null","","null","html-keyboard-response","318","2003580","0.0-7.0-5.34","","","test","downarrow","1","2","FALSE","FALSE",""
"null","<div style=""font-size:60px;""> </div>","null","html-keyboard-response","319","2003881","0.0-7.0-6.34","","","fixation_4","","","","","",""
"152.10000000149012","arrows.png","37","image-keyboard-response","320","2004034","0.0-7.0-7.34","","","test","downarrow","1","2","FALSE","FALSE","false"
"null","<p style=""color: red; font-size:300%;"">incorrect: $0</p>","null","html-keyboard-response","321","2005286","0.0-7.0-8.34","","","","","","","","",""
"null","<div style=""font-size:60px;""> </div>","null","html-keyboard-response","322","2006338","0.0-7.0-0.35","","","fixation_1","","","","","",""
"null","","null","image-keyboard-response","323","2006344","0.0-7.0-1.35","","","test","leftarrow","1","2","FALSE","FALSE",""
"null","<div style=""font-size:60px;""> </div>","null","html-keyboard-response","324","2006645","0.0-7.0-2.35","","","fixation_2","","","","","",""
"null","img_7.bmp","null","image-keyboard-response","325","2007647","0.0-7.0-3.35","","","img_on","","","","","",""
"null","<div style=""font-size:60px;""> </div>","null","html-keyboard-response","326","2007948","0.0-7.0-4.35","","","fixation_3","","","","","",""
"null","","null","html-keyboard-response","327","2007953","0.0-7.0-5.35","","","test","leftarrow","1","2","FALSE","FALSE",""
"null","<div style=""font-size:60px;""> </div>","null","html-keyboard-response","328","2008254","0.0-7.0-6.35","","","fixation_4","","","","","",""
"61.100000001490116","arrows.png","38","image-keyboard-response","329","2008317","0.0-7.0-7.35","","","test","leftarrow","1","2","FALSE","FALSE","false"
"null","<p style=""color: red; font-size:300%;"">incorrect: $0</p>","null","html-keyboard-response","330","2009568","0.0-7.0-8.35","","","","","","","","",""
"null","<div style=""font-size:60px;""> </div>","null","html-keyboard-response","331","2010120","0.0-7.0-0.36","","","fixation_1","","","","","",""
"null","","null","image-keyboard-response","332","2010125","0.0-7.0-1.36","","","test","rightarrow","0","2","FALSE","FALSE",""
"null","<div style=""font-size:60px;""> </div>","null","html-keyboard-response","333","2010426","0.0-7.0-2.36","","","fixation_2","","","","","",""
"null","img_5.bmp","null","image-keyboard-response","334","2011427","0.0-7.0-3.36","","","img_on","","","","","",""
"null","<div style=""font-size:60px;""> </div>","null","html-keyboard-response","335","2011729","0.0-7.0-4.36","","","fixation_3","","","","","",""
"null","","null","html-keyboard-response","336","2011735","0.0-7.0-5.36","","","test","rightarrow","0","2","FALSE","FALSE",""
"null","<div style=""font-size:60px;""> </div>","null","html-keyboard-response","337","2012036","0.0-7.0-6.36","","","fixation_4","","","","","",""
"446.79999999701977","arrows.png","39","image-keyboard-response","338","2012485","0.0-7.0-7.36","","","test","rightarrow","0","2","FALSE","FALSE","true"
"null","<p style=""color: green; font-size:300%;"">correct: $2.50</p>","null","html-keyboard-response","339","2013736","0.0-7.0-8.36","","","","","","","","",""
"null","<div style=""font-size:60px;""> </div>","null","html-keyboard-response","340","2014787","0.0-7.0-0.37","","","fixation_1","","","","","",""
"null","","null","image-keyboard-response","341","2014794","0.0-7.0-1.37","","","test","uparrow","0","2","FALSE","FALSE",""
"null","<div style=""font-size:60px;""> </div>","null","html-keyboard-response","342","2015095","0.0-7.0-2.37","","","fixation_2","","","","","",""
"null","img_8.bmp","null","image-keyboard-response","343","2016096","0.0-7.0-3.37","","","img_on","","","","","",""
"null","<div style=""font-size:60px;""> </div>","null","html-keyboard-response","344","2016397","0.0-7.0-4.37","","","fixation_3","","","","","",""
"null","","null","html-keyboard-response","345","2016402","0.0-7.0-5.37","","","test","uparrow","0","2","FALSE","FALSE",""
"null","<div style=""font-size:60px;""> </div>","null","html-keyboard-response","346","2016703","0.0-7.0-6.37","","","fixation_4","","","","","",""
"190.19999999552965","arrows.png","40","image-keyboard-response","347","2016896","0.0-7.0-7.37","","","test","uparrow","0","2","FALSE","FALSE","false"
"null","<p style=""color: red; font-size:300%;"">incorrect: $0</p>","null","html-keyboard-response","348","2018147","0.0-7.0-8.37","","","","","","","","",""
"null","<div style=""font-size:60px;""> </div>","null","html-keyboard-response","349","2019448","0.0-7.0-0.38","","","fixation_1","","","","","",""
"null","","null","image-keyboard-response","350","2019456","0.0-7.0-1.38","","","test","leftarrow","1","2","FALSE","FALSE",""
"null","<div style=""font-size:60px;""> </div>","null","html-keyboard-response","351","2019757","0.0-7.0-2.38","","","fixation_2","","","","","",""
"null","img_7.bmp","null","image-keyboard-response","352","2020759","0.0-7.0-3.38","","","img_on","","","","","",""
"null","<div style=""font-size:60px;""> </div>","null","html-keyboard-response","353","2021060","0.0-7.0-4.38","","","fixation_3","","","","","",""
"null","","null","html-keyboard-response","354","2021065","0.0-7.0-5.38","","","test","leftarrow","1","2","FALSE","FALSE",""
"null","<div style=""font-size:60px;""> </div>","null","html-keyboard-response","355","2021366","0.0-7.0-6.38","","","fixation_4","","","","","",""
"131.89999999850988","arrows.png","38","image-keyboard-response","356","2021500","0.0-7.0-7.38","","","test","leftarrow","1","2","FALSE","FALSE","false"
"null","<p style=""color: red; font-size:300%;"">incorrect: $0</p>","null","html-keyboard-response","357","2022751","0.0-7.0-8.38","","","","","","","","",""
"null","<div style=""font-size:60px;""> </div>","null","html-keyboard-response","358","2023553","0.0-7.0-0.39","","","fixation_1","","","","","",""
"null","","null","image-keyboard-response","359","2023559","0.0-7.0-1.39","","","test","downarrow","1","2","FALSE","FALSE",""
"null","<div style=""font-size:60px;""> </div>","null","html-keyboard-response","360","2023860","0.0-7.0-2.39","","","fixation_2","","","","","",""
"null","img_6.bmp","null","image-keyboard-response","361","2024862","0.0-7.0-3.39","","","img_on","","","","","",""
"null","<div style=""font-size:60px;""> </div>","null","html-keyboard-response","362","2025164","0.0-7.0-4.39","","","fixation_3","","","","","",""
"null","","null","html-keyboard-response","363","2025168","0.0-7.0-5.39","","","test","downarrow","1","2","FALSE","FALSE",""
"null","<div style=""font-size:60px;""> </div>","null","html-keyboard-response","364","2025469","0.0-7.0-6.39","","","fixation_4","","","","","",""
"13.300000004470348","arrows.png","40","image-keyboard-response","365","2025484","0.0-7.0-7.39","","","test","downarrow","1","2","FALSE","FALSE","true"
"null","<p style=""color: green; font-size:300%;"">correct: $7.50</p>","null","html-keyboard-response","366","2026736","0.0-7.0-8.39","","","","","","","","",""
"null","<div style=""font-size:60px;""> </div>","null","html-keyboard-response","367","2028287","0.0-7.0-0.40","","","fixation_1","","","","","",""
"null","","null","image-keyboard-response","368","2028292","0.0-7.0-1.40","","","test","uparrow","0","2","FALSE","FALSE",""
"null","<div style=""font-size:60px;""> </div>","null","html-keyboard-response","369","2028594","0.0-7.0-2.40","","","fixation_2","","","","","",""
"null","img_8.bmp","null","image-keyboard-response","370","2029595","0.0-7.0-3.40","","","img_on","","","","","",""
"null","<div style=""font-size:60px;""> </div>","null","html-keyboard-response","371","2029897","0.0-7.0-4.40","","","fixation_3","","","","","",""
"null","","null","html-keyboard-response","372","2029903","0.0-7.0-5.40","","","test","uparrow","0","2","FALSE","FALSE",""
"null","<div style=""font-size:60px;""> </div>","null","html-keyboard-response","373","2030204","0.0-7.0-6.40","","","fixation_4","","","","","",""
"311.6000000014901","arrows.png","37","image-keyboard-response","374","2030518","0.0-7.0-7.40","","","test","uparrow","0","2","FALSE","FALSE","false"
"null","<p style=""color: red; font-size:300%;"">incorrect: $0</p>","null","html-keyboard-response","375","2031770","0.0-7.0-8.40","","","","","","","","",""
"null","<div style=""font-size:60px;""> </div>","null","html-keyboard-response","376","2032321","0.0-7.0-0.41","","","fixation_1","","","","","",""
"null","","null","image-keyboard-response","377","2032327","0.0-7.0-1.41","","","test","downarrow","1","2","FALSE","FALSE",""
"null","<div style=""font-size:60px;""> </div>","null","html-keyboard-response","378","2032630","0.0-7.0-2.41","","","fixation_2","","","","","",""
"null","img_6.bmp","null","image-keyboard-response","379","2033631","0.0-7.0-3.41","","","img_on","","","","","",""
"null","<div style=""font-size:60px;""> </div>","null","html-keyboard-response","380","2033933","0.0-7.0-4.41","","","fixation_3","","","","","",""
"null","","null","html-keyboard-response","381","2033938","0.0-7.0-5.41","","","test","downarrow","1","2","FALSE","FALSE",""
"null","<div style=""font-size:60px;""> </div>","null","html-keyboard-response","382","2034240","0.0-7.0-6.41","","","fixation_4","","","","","",""
"34.600000001490116","arrows.png","40","image-keyboard-response","383","2034276","0.0-7.0-7.41","","","test","downarrow","1","2","FALSE","FALSE","true"
"null","<p style=""color: green; font-size:300%;"">correct: $7.50</p>","null","html-keyboard-response","384","2035528","0.0-7.0-8.41","","","","","","","","",""
"null","<div style=""font-size:60px;""> </div>","null","html-keyboard-response","385","2036579","0.0-7.0-0.42","","","fixation_1","","","","","",""
"null","","null","image-keyboard-response","386","2036585","0.0-7.0-1.42","","","test","rightarrow","0","2","FALSE","FALSE",""
"null","<div style=""font-size:60px;""> </div>","null","html-keyboard-response","387","2036887","0.0-7.0-2.42","","","fixation_2","","","","","",""
"null","img_5.bmp","null","image-keyboard-response","388","2037888","0.0-7.0-3.42","","","img_on","","","","","",""
"null","<div style=""font-size:60px;""> </div>","null","html-keyboard-response","389","2038190","0.0-7.0-4.42","","","fixation_3","","","","","",""
"null","","null","html-keyboard-response","390","2038195","0.0-7.0-5.42","","","test","rightarrow","0","2","FALSE","FALSE",""
"null","<div style=""font-size:60px;""> </div>","null","html-keyboard-response","391","2038496","0.0-7.0-6.42","","","fixation_4","","","","","",""
"143.19999999552965","arrows.png","39","image-keyboard-response","392","2038641","0.0-7.0-7.42","","","test","rightarrow","0","2","FALSE","FALSE","true"
"null","<p style=""color: green; font-size:300%;"">correct: $2.50</p>","null","html-keyboard-response","393","2039893","0.0-7.0-8.42","","","","","","","","",""
"null","<div style=""font-size:60px;""> </div>","null","html-keyboard-response","394","2040945","0.0-7.0-0.43","","","fixation_1","","","","","",""
"null","","null","image-keyboard-response","395","2040951","0.0-7.0-1.43","","","test","leftarrow","1","2","FALSE","FALSE",""
"null","<div style=""font-size:60px;""> </div>","null","html-keyboard-response","396","2041252","0.0-7.0-2.43","","","fixation_2","","","","","",""
"null","img_7.bmp","null","image-keyboard-response","397","2042255","0.0-7.0-3.43","","","img_on","","","","","",""
"null","<div style=""font-size:60px;""> </div>","null","html-keyboard-response","398","2042556","0.0-7.0-4.43","","","fixation_3","","","","","",""
"null","","null","html-keyboard-response","399","2042561","0.0-7.0-5.43","","","test","leftarrow","1","2","FALSE","FALSE",""
"null","<div style=""font-size:60px;""> </div>","null","html-keyboard-response","400","2042862","0.0-7.0-6.43","","","fixation_4","","","","","",""
"337.70000000298023","arrows.png","38","image-keyboard-response","401","2043202","0.0-7.0-7.43","","","test","leftarrow","1","2","FALSE","FALSE","false"
"null","<p style=""color: red; font-size:300%;"">incorrect: $0</p>","null","html-keyboard-response","402","2044453","0.0-7.0-8.43","","","","","","","","",""
"null","<div style=""font-size:60px;""> </div>","null","html-keyboard-response","403","2045755","0.0-7.0-0.44","","","fixation_1","","","","","",""
"null","","null","image-keyboard-response","404","2045760","0.0-7.0-1.44","","","test","rightarrow","0","2","FALSE","FALSE",""
"null","<div style=""font-size:60px;""> </div>","null","html-keyboard-response","405","2046062","0.0-7.0-2.44","","","fixation_2","","","","","",""
"null","img_5.bmp","null","image-keyboard-response","406","2047064","0.0-7.0-3.44","","","img_on","","","","","",""
"null","<div style=""font-size:60px;""> </div>","null","html-keyboard-response","407","2047366","0.0-7.0-4.44","","","fixation_3","","","","","",""
"null","","null","html-keyboard-response","408","2047372","0.0-7.0-5.44","","","test","rightarrow","0","2","FALSE","FALSE",""
"null","<div style=""font-size:60px;""> </div>","null","html-keyboard-response","409","2047673","0.0-7.0-6.44","","","fixation_4","","","","","",""
"5.100000001490116","arrows.png","39","image-keyboard-response","410","2047681","0.0-7.0-7.44","","","test","rightarrow","0","2","FALSE","FALSE","true"
"null","<p style=""color: green; font-size:300%;"">correct: $2.50</p>","null","html-keyboard-response","411","2048933","0.0-7.0-8.44","","","","","","","","",""
"null","<div style=""font-size:60px;""> </div>","null","html-keyboard-response","412","2049484","0.0-7.0-0.45","","","fixation_1","","","","","",""
"null","","null","image-keyboard-response","413","2049490","0.0-7.0-1.45","","","test","downarrow","1","2","FALSE","FALSE",""
"null","<div style=""font-size:60px;""> </div>","null","html-keyboard-response","414","2049791","0.0-7.0-2.45","","","fixation_2","","","","","",""
"null","img_6.bmp","null","image-keyboard-response","415","2050793","0.0-7.0-3.45","","","img_on","","","","","",""
"null","<div style=""font-size:60px;""> </div>","null","html-keyboard-response","416","2051094","0.0-7.0-4.45","","","fixation_3","","","","","",""
"null","","null","html-keyboard-response","417","2051099","0.0-7.0-5.45","","","test","downarrow","1","2","FALSE","FALSE",""
"null","<div style=""font-size:60px;""> </div>","null","html-keyboard-response","418","2051400","0.0-7.0-6.45","","","fixation_4","","","","","",""
"38","arrows.png","40","image-keyboard-response","419","2051441","0.0-7.0-7.45","","","test","downarrow","1","2","FALSE","FALSE","true"
"null","<p style=""color: green; font-size:300%;"">correct: $7.50</p>","null","html-keyboard-response","420","2052692","0.0-7.0-8.45","","","","","","","","",""
"null","<div style=""font-size:60px;""> </div>","null","html-keyboard-response","421","2053743","0.0-7.0-0.46","","","fixation_1","","","","","",""
"null","","null","image-keyboard-response","422","2053749","0.0-7.0-1.46","","","test","leftarrow","1","2","FALSE","FALSE",""
"null","<div style=""font-size:60px;""> </div>","null","html-keyboard-response","423","2054051","0.0-7.0-2.46","","","fixation_2","","","","","",""
"null","img_7.bmp","null","image-keyboard-response","424","2055053","0.0-7.0-3.46","","","img_on","","","","","",""
"null","<div style=""font-size:60px;""> </div>","null","html-keyboard-response","425","2055354","0.0-7.0-4.46","","","fixation_3","","","","","",""
"null","","null","html-keyboard-response","426","2055359","0.0-7.0-5.46","","","test","leftarrow","1","2","FALSE","FALSE",""
"null","<div style=""font-size:60px;""> </div>","null","html-keyboard-response","427","2055661","0.0-7.0-6.46","","","fixation_4","","","","","",""
"361.20000000298023","arrows.png","37","image-keyboard-response","428","2056025","0.0-7.0-7.46","","","test","leftarrow","1","2","FALSE","FALSE","true"
"null","<p style=""color: green; font-size:300%;"">correct: $7.50</p>","null","html-keyboard-response","429","2057277","0.0-7.0-8.46","","","","","","","","",""
"null","<div style=""font-size:60px;""> </div>","null","html-keyboard-response","430","2058829","0.0-7.0-0.47","","","fixation_1","","","","","",""
"null","","null","image-keyboard-response","431","2058834","0.0-7.0-1.47","","","test","uparrow","0","2","FALSE","FALSE",""
"null","<div style=""font-size:60px;""> </div>","null","html-keyboard-response","432","2059136","0.0-7.0-2.47","","","fixation_2","","","","","",""
"null","img_8.bmp","null","image-keyboard-response","433","2060137","0.0-7.0-3.47","","","img_on","","","","","",""
"null","<div style=""font-size:60px;""> </div>","null","html-keyboard-response","434","2060438","0.0-7.0-4.47","","","fixation_3","","","","","",""
"null","","null","html-keyboard-response","435","2060443","0.0-7.0-5.47","","","test","uparrow","0","2","FALSE","FALSE",""
"null","<div style=""font-size:60px;""> </div>","null","html-keyboard-response","436","2060745","0.0-7.0-6.47","","","fixation_4","","","","","",""
"48.70000000298023","arrows.png","38","image-keyboard-response","437","2060794","0.0-7.0-7.47","","","test","uparrow","0","2","FALSE","FALSE","true"
"null","<p style=""color: green; font-size:300%;"">correct: $2.50</p>","null","html-keyboard-response","438","2062047","0.0-7.0-8.47","","","","","","","","",""
"null","<div style=""font-size:60px;""> </div>","null","html-keyboard-response","439","2062598","0.0-7.0-0.48","","","fixation_1","","","","","",""
"null","","null","image-keyboard-response","440","2062604","0.0-7.0-1.48","","","test","downarrow","0","1","FALSE","FALSE",""
"null","<div style=""font-size:60px;""> </div>","null","html-keyboard-response","441","2062905","0.0-7.0-2.48","","","fixation_2","","","","","",""
"null","img_3.bmp","null","image-keyboard-response","442","2063908","0.0-7.0-3.48","","","img_on","","","","","",""
"null","<div style=""font-size:60px;""> </div>","null","html-keyboard-response","443","2064209","0.0-7.0-4.48","","","fixation_3","","","","","",""
"null","","null","html-keyboard-response","444","2064215","0.0-7.0-5.48","","","test","downarrow","0","1","FALSE","FALSE",""
"null","<div style=""font-size:60px;""> </div>","null","html-keyboard-response","445","2064516","0.0-7.0-6.48","","","fixation_4","","","","","",""
"117.79999999701977","arrows.png","40","image-keyboard-response","446","2064636","0.0-7.0-7.48","","","test","downarrow","0","1","FALSE","FALSE","true"
"null","<p style=""color: green; font-size:300%;"">correct: $2.50</p>","null","html-keyboard-response","447","2065888","0.0-7.0-8.48","","","","","","","","",""
"null","<div style=""font-size:60px;""> </div>","null","html-keyboard-response","448","2067439","0.0-7.0-0.49","","","fixation_1","","","","","",""
"null","","null","image-keyboard-response","449","2067445","0.0-7.0-1.49","","","test","rightarrow","1","1","FALSE","FALSE",""
"null","<div style=""font-size:60px;""> </div>","null","html-keyboard-response","450","2067746","0.0-7.0-2.49","","","fixation_2","","","","","",""
"null","img_2.bmp","null","image-keyboard-response","451","2068747","0.0-7.0-3.49","","","img_on","","","","","",""
"null","<div style=""font-size:60px;""> </div>","null","html-keyboard-response","452","2069049","0.0-7.0-4.49","","","fixation_3","","","","","",""
"null","","null","html-keyboard-response","453","2069055","0.0-7.0-5.49","","","test","rightarrow","1","1","FALSE","FALSE",""
"null","<div style=""font-size:60px;""> </div>","null","html-keyboard-response","454","2069357","0.0-7.0-6.49","","","fixation_4","","","","","",""
"52.900000005960464","arrows.png","39","image-keyboard-response","455","2069412","0.0-7.0-7.49","","","test","rightarrow","1","1","FALSE","FALSE","true"
"null","<p style=""color: green; font-size:300%;"">correct: $7.50</p>","null","html-keyboard-response","456","2070663","0.0-7.0-8.49","","","","","","","","",""
"null","<div style=""font-size:60px;""> </div>","null","html-keyboard-response","457","2071465","0.0-7.0-0.50","","","fixation_1","","","","","",""
"null","","null","image-keyboard-response","458","2071470","0.0-7.0-1.50","","","test","uparrow","1","1","FALSE","FALSE",""
"null","<div style=""font-size:60px;""> </div>","null","html-keyboard-response","459","2071771","0.0-7.0-2.50","","","fixation_2","","","","","",""
"null","img_1.bmp","null","image-keyboard-response","460","2072773","0.0-7.0-3.50","","","img_on","","","","","",""
"null","<div style=""font-size:60px;""> </div>","null","html-keyboard-response","461","2073075","0.0-7.0-4.50","","","fixation_3","","","","","",""
"null","","null","html-keyboard-response","462","2073081","0.0-7.0-5.50","","","test","uparrow","1","1","FALSE","FALSE",""
"null","<div style=""font-size:60px;""> </div>","null","html-keyboard-response","463","2073383","0.0-7.0-6.50","","","fixation_4","","","","","",""
"105.70000000298023","arrows.png","38","image-keyboard-response","464","2073490","0.0-7.0-7.50","","","test","uparrow","1","1","FALSE","FALSE","true"
"null","<p style=""color: green; font-size:300%;"">correct: $7.50</p>","null","html-keyboard-response","465","2074741","0.0-7.0-8.50","","","","","","","","",""
"null","<div style=""font-size:60px;""> </div>","null","html-keyboard-response","466","2076043","0.0-7.0-0.51","","","fixation_1","","","","","",""
"null","","null","image-keyboard-response","467","2076049","0.0-7.0-1.51","","","test","leftarrow","0","1","FALSE","FALSE",""
"null","<div style=""font-size:60px;""> </div>","null","html-keyboard-response","468","2076350","0.0-7.0-2.51","","","fixation_2","","","","","",""
"null","img_4.bmp","null","image-keyboard-response","469","2077352","0.0-7.0-3.51","","","img_on","","","","","",""
"null","<div style=""font-size:60px;""> </div>","null","html-keyboard-response","470","2077653","0.0-7.0-4.51","","","fixation_3","","","","","",""
"null","","null","html-keyboard-response","471","2077659","0.0-7.0-5.51","","","test","leftarrow","0","1","FALSE","FALSE",""
"null","<div style=""font-size:60px;""> </div>","null","html-keyboard-response","472","2077961","0.0-7.0-6.51","","","fixation_4","","","","","",""
"26","arrows.png","40","image-keyboard-response","473","2077989","0.0-7.0-7.51","","","test","leftarrow","0","1","FALSE","FALSE","false"
"null","<p style=""color: red; font-size:300%;"">incorrect: $0</p>","null","html-keyboard-response","474","2079241","0.0-7.0-8.51","","","","","","","","",""
"null","<div style=""font-size:60px;""> </div>","null","html-keyboard-response","475","2080542","0.0-7.0-0.52","","","fixation_1","","","","","",""
"null","","null","image-keyboard-response","476","2080548","0.0-7.0-1.52","","","test","uparrow","1","1","FALSE","FALSE",""
"null","<div style=""font-size:60px;""> </div>","null","html-keyboard-response","477","2080849","0.0-7.0-2.52","","","fixation_2","","","","","",""
"null","img_1.bmp","null","image-keyboard-response","478","2081852","0.0-7.0-3.52","","","img_on","","","","","",""
"null","<div style=""font-size:60px;""> </div>","null","html-keyboard-response","479","2082153","0.0-7.0-4.52","","","fixation_3","","","","","",""
"null","","null","html-keyboard-response","480","2082158","0.0-7.0-5.52","","","test","uparrow","1","1","FALSE","FALSE",""
"null","<div style=""font-size:60px;""> </div>","null","html-keyboard-response","481","2082459","0.0-7.0-6.52","","","fixation_4","","","","","",""
"42.20000000298023","arrows.png","38","image-keyboard-response","482","2082504","0.0-7.0-7.52","","","test","uparrow","1","1","FALSE","FALSE","true"
"null","<p style=""color: green; font-size:300%;"">correct: $7.50</p>","null","html-keyboard-response","483","2083756","0.0-7.0-8.52","","","","","","","","",""
"null","<div style=""font-size:60px;""> </div>","null","html-keyboard-response","484","2085057","0.0-7.0-0.53","","","fixation_1","","","","","",""
"null","","null","image-keyboard-response","485","2085064","0.0-7.0-1.53","","","test","rightarrow","1","1","FALSE","FALSE",""
"null","<div style=""font-size:60px;""> </div>","null","html-keyboard-response","486","2085365","0.0-7.0-2.53","","","fixation_2","","","","","",""
"null","img_2.bmp","null","image-keyboard-response","487","2086367","0.0-7.0-3.53","","","img_on","","","","","",""
"null","<div style=""font-size:60px;""> </div>","null","html-keyboard-response","488","2086668","0.0-7.0-4.53","","","fixation_3","","","","","",""
"null","","null","html-keyboard-response","489","2086673","0.0-7.0-5.53","","","test","rightarrow","1","1","FALSE","FALSE",""
"null","<div style=""font-size:60px;""> </div>","null","html-keyboard-response","490","2086974","0.0-7.0-6.53","","","fixation_4","","","","","",""
"304.1000000014901","arrows.png","39","image-keyboard-response","491","2087280","0.0-7.0-7.53","","","test","rightarrow","1","1","FALSE","FALSE","true"
"null","<p style=""color: green; font-size:300%;"">correct: $7.50</p>","null","html-keyboard-response","492","2088532","0.0-7.0-8.53","","","","","","","","",""
"null","<div style=""font-size:60px;""> </div>","null","html-keyboard-response","493","2089084","0.0-7.0-0.54","","","fixation_1","","","","","",""
"null","","null","image-keyboard-response","494","2089089","0.0-7.0-1.54","","","test","leftarrow","0","1","FALSE","FALSE",""
"null","<div style=""font-size:60px;""> </div>","null","html-keyboard-response","495","2089390","0.0-7.0-2.54","","","fixation_2","","","","","",""
"null","img_4.bmp","null","image-keyboard-response","496","2090393","0.0-7.0-3.54","","","img_on","","","","","",""
"null","<div style=""font-size:60px;""> </div>","null","html-keyboard-response","497","2090694","0.0-7.0-4.54","","","fixation_3","","","","","",""
"null","","null","html-keyboard-response","498","2090699","0.0-7.0-5.54","","","test","leftarrow","0","1","FALSE","FALSE",""
"null","<div style=""font-size:60px;""> </div>","null","html-keyboard-response","499","2091000","0.0-7.0-6.54","","","fixation_4","","","","","",""
"61.30000000447035","arrows.png","37","image-keyboard-response","500","2091064","0.0-7.0-7.54","","","test","leftarrow","0","1","FALSE","FALSE","true"
"null","<p style=""color: green; font-size:300%;"">correct: $2.50</p>","null","html-keyboard-response","501","2092316","0.0-7.0-8.54","","","","","","","","",""
"null","<div style=""font-size:60px;""> </div>","null","html-keyboard-response","502","2093617","0.0-7.0-0.55","","","fixation_1","","","","","",""
"null","","null","image-keyboard-response","503","2093623","0.0-7.0-1.55","","","test","downarrow","0","1","FALSE","FALSE",""
"null","<div style=""font-size:60px;""> </div>","null","html-keyboard-response","504","2093925","0.0-7.0-2.55","","","fixation_2","","","","","",""
"null","img_3.bmp","null","image-keyboard-response","505","2094927","0.0-7.0-3.55","","","img_on","","","","","",""
"null","<div style=""font-size:60px;""> </div>","null","html-keyboard-response","506","2095228","0.0-7.0-4.55","","","fixation_3","","","","","",""
"null","","null","html-keyboard-response","507","2095234","0.0-7.0-5.55","","","test","downarrow","0","1","FALSE","FALSE",""
"null","<div style=""font-size:60px;""> </div>","null","html-keyboard-response","508","2095535","0.0-7.0-6.55","","","fixation_4","","","","","",""
"132.10000000149012","arrows.png","40","image-keyboard-response","509","2095670","0.0-7.0-7.55","","","test","downarrow","0","1","FALSE","FALSE","true"
"null","<p style=""color: green; font-size:300%;"">correct: $2.50</p>","null","html-keyboard-response","510","2096922","0.0-7.0-8.55","","","","","","","","",""
"null","<div style=""font-size:60px;""> </div>","null","html-keyboard-response","511","2097724","0.0-7.0-0.56","","","fixation_1","","","","","",""
"null","","null","image-keyboard-response","512","2097729","0.0-7.0-1.56","","","test","downarrow","0","1","FALSE","FALSE",""
"null","<div style=""font-size:60px;""> </div>","null","html-keyboard-response","513","2098030","0.0-7.0-2.56","","","fixation_2","","","","","",""
"null","img_3.bmp","null","image-keyboard-response","514","2099032","0.0-7.0-3.56","","","img_on","","","","","",""
"null","<div style=""font-size:60px;""> </div>","null","html-keyboard-response","515","2099334","0.0-7.0-4.56","","","fixation_3","","","","","",""
"null","","null","html-keyboard-response","516","2099340","0.0-7.0-5.56","","","test","downarrow","0","1","FALSE","FALSE",""
"null","<div style=""font-size:60px;""> </div>","null","html-keyboard-response","517","2099642","0.0-7.0-6.56","","","fixation_4","","","","","",""
"254.39999999850988","arrows.png","40","image-keyboard-response","518","2099898","0.0-7.0-7.56","","","test","downarrow","0","1","FALSE","FALSE","true"
"null","<p style=""color: green; font-size:300%;"">correct: $2.50</p>","null","html-keyboard-response","519","2101149","0.0-7.0-8.56","","","","","","","","",""
"null","<div style=""font-size:60px;""> </div>","null","html-keyboard-response","520","2101700","0.0-7.0-0.57","","","fixation_1","","","","","",""
"null","","null","image-keyboard-response","521","2101706","0.0-7.0-1.57","","","test","uparrow","1","1","FALSE","FALSE",""
"null","<div style=""font-size:60px;""> </div>","null","html-keyboard-response","522","2102007","0.0-7.0-2.57","","","fixation_2","","","","","",""
"null","img_1.bmp","null","image-keyboard-response","523","2103009","0.0-7.0-3.57","","","img_on","","","","","",""
"null","<div style=""font-size:60px;""> </div>","null","html-keyboard-response","524","2103310","0.0-7.0-4.57","","","fixation_3","","","","","",""
"null","","null","html-keyboard-response","525","2103315","0.0-7.0-5.57","","","test","uparrow","1","1","FALSE","FALSE",""
"null","<div style=""font-size:60px;""> </div>","null","html-keyboard-response","526","2103616","0.0-7.0-6.57","","","fixation_4","","","","","",""
"357.1000000014901","arrows.png","38","image-keyboard-response","527","2103975","0.0-7.0-7.57","","","test","uparrow","1","1","FALSE","FALSE","true"
"null","<p style=""color: green; font-size:300%;"">correct: $7.50</p>","null","html-keyboard-response","528","2105227","0.0-7.0-8.57","","","","","","","","",""
"null","<div style=""font-size:60px;""> </div>","null","html-keyboard-response","529","2106279","0.0-7.0-0.58","","","fixation_1","","","","","",""
"null","","null","image-keyboard-response","530","2106285","0.0-7.0-1.58","","","test","rightarrow","1","1","FALSE","FALSE",""
"null","<div style=""font-size:60px;""> </div>","null","html-keyboard-response","531","2106586","0.0-7.0-2.58","","","fixation_2","","","","","",""
"null","img_2.bmp","null","image-keyboard-response","532","2107588","0.0-7.0-3.58","","","img_on","","","","","",""
"null","<div style=""font-size:60px;""> </div>","null","html-keyboard-response","533","2107890","0.0-7.0-4.58","","","fixation_3","","","","","",""
"null","","null","html-keyboard-response","534","2107896","0.0-7.0-5.58","","","test","rightarrow","1","1","FALSE","FALSE",""
"null","<div style=""font-size:60px;""> </div>","null","html-keyboard-response","535","2108197","0.0-7.0-6.58","","","fixation_4","","","","","",""
"308.29999999701977","arrows.png","39","image-keyboard-response","536","2108507","0.0-7.0-7.58","","","test","rightarrow","1","1","FALSE","FALSE","true"
"null","<p style=""color: green; font-size:300%;"">correct: $7.50</p>","null","html-keyboard-response","537","2109759","0.0-7.0-8.58","","","","","","","","",""
"null","<div style=""font-size:60px;""> </div>","null","html-keyboard-response","538","2110811","0.0-7.0-0.59","","","fixation_1","","","","","",""
"null","","null","image-keyboard-response","539","2110817","0.0-7.0-1.59","","","test","leftarrow","0","1","FALSE","FALSE",""
"null","<div style=""font-size:60px;""> </div>","null","html-keyboard-response","540","2111119","0.0-7.0-2.59","","","fixation_2","","","","","",""
"null","img_4.bmp","null","image-keyboard-response","541","2112121","0.0-7.0-3.59","","","img_on","","","","","",""
"null","<div style=""font-size:60px;""> </div>","null","html-keyboard-response","542","2112422","0.0-7.0-4.59","","","fixation_3","","","","","",""
"null","","null","html-keyboard-response","543","2112428","0.0-7.0-5.59","","","test","leftarrow","0","1","FALSE","FALSE",""
"null","<div style=""font-size:60px;""> </div>","null","html-keyboard-response","544","2112729","0.0-7.0-6.59","","","fixation_4","","","","","",""
"218.19999999552965","arrows.png","37","image-keyboard-response","545","2112949","0.0-7.0-7.59","","","test","leftarrow","0","1","FALSE","FALSE","true"
"null","<p style=""color: green; font-size:300%;"">correct: $2.50</p>","null","html-keyboard-response","546","2114200","0.0-7.0-8.59","","","","","","","","",""
"null","<div style=""font-size:60px;""> </div>","null","html-keyboard-response","547","2114751","0.0-7.0-0.60","","","fixation_1","","","","","",""
"null","","null","image-keyboard-response","548","2114756","0.0-7.0-1.60","","","test","rightarrow","1","1","FALSE","FALSE",""
"null","<div style=""font-size:60px;""> </div>","null","html-keyboard-response","549","2115058","0.0-7.0-2.60","","","fixation_2","","","","","",""
"null","img_2.bmp","null","image-keyboard-response","550","2116060","0.0-7.0-3.60","","","img_on","","","","","",""
"null","<div style=""font-size:60px;""> </div>","null","html-keyboard-response","551","2116362","0.0-7.0-4.60","","","fixation_3","","","","","",""
"null","","null","html-keyboard-response","552","2116367","0.0-7.0-5.60","","","test","rightarrow","1","1","FALSE","FALSE",""
"null","<div style=""font-size:60px;""> </div>","null","html-keyboard-response","553","2116668","0.0-7.0-6.60","","","fixation_4","","","","","",""
"84.19999999552965","arrows.png","39","image-keyboard-response","554","2116755","0.0-7.0-7.60","","","test","rightarrow","1","1","FALSE","FALSE","true"
"null","<p style=""color: green; font-size:300%;"">correct: $7.50</p>","null","html-keyboard-response","555","2118007","0.0-7.0-8.60","","","","","","","","",""
"null","<div style=""font-size:60px;""> </div>","null","html-keyboard-response","556","2119309","0.0-7.0-0.61","","","fixation_1","","","","","",""
"null","","null","image-keyboard-response","557","2119315","0.0-7.0-1.61","","","test","uparrow","1","1","FALSE","FALSE",""
"null","<div style=""font-size:60px;""> </div>","null","html-keyboard-response","558","2119616","0.0-7.0-2.61","","","fixation_2","","","","","",""
"null","img_1.bmp","null","image-keyboard-response","559","2120619","0.0-7.0-3.61","","","img_on","","","","","",""
"null","<div style=""font-size:60px;""> </div>","null","html-keyboard-response","560","2120920","0.0-7.0-4.61","","","fixation_3","","","","","",""
"null","","null","html-keyboard-response","561","2120925","0.0-7.0-5.61","","","test","uparrow","1","1","FALSE","FALSE",""
"null","<div style=""font-size:60px;""> </div>","null","html-keyboard-response","562","2121226","0.0-7.0-6.61","","","fixation_4","","","","","",""
"411","arrows.png","38","image-keyboard-response","563","2121639","0.0-7.0-7.61","","","test","uparrow","1","1","FALSE","FALSE","true"
"null","<p style=""color: green; font-size:300%;"">correct: $7.50</p>","null","html-keyboard-response","564","2122891","0.0-7.0-8.61","","","","","","","","",""
"null","<div style=""font-size:60px;""> </div>","null","html-keyboard-response","565","2123693","0.0-7.0-0.62","","","fixation_1","","","","","",""
"null","","null","image-keyboard-response","566","2123698","0.0-7.0-1.62","","","test","leftarrow","0","1","FALSE","FALSE",""
"null","<div style=""font-size:60px;""> </div>","null","html-keyboard-response","567","2124000","0.0-7.0-2.62","","","fixation_2","","","","","",""
"null","img_4.bmp","null","image-keyboard-response","568","2125003","0.0-7.0-3.62","","","img_on","","","","","",""
"null","<div style=""font-size:60px;""> </div>","null","html-keyboard-response","569","2125306","0.0-7.0-4.62","","","fixation_3","","","","","",""
"null","","null","html-keyboard-response","570","2125311","0.0-7.0-5.62","","","test","leftarrow","0","1","FALSE","FALSE",""
"null","<div style=""font-size:60px;""> </div>","null","html-keyboard-response","571","2125614","0.0-7.0-6.62","","","fixation_4","","","","","",""
"96.80000000447035","arrows.png","37","image-keyboard-response","572","2125713","0.0-7.0-7.62","","","test","leftarrow","0","1","FALSE","FALSE","true"
"null","<p style=""color: green; font-size:300%;"">correct: $2.50</p>","null","html-keyboard-response","573","2126964","0.0-7.0-8.62","","","","","","","","",""
"null","<div style=""font-size:60px;""> </div>","null","html-keyboard-response","574","2128016","0.0-7.0-0.63","","","fixation_1","","","","","",""
"null","","null","image-keyboard-response","575","2128022","0.0-7.0-1.63","","","test","downarrow","0","1","FALSE","FALSE",""
"null","<div style=""font-size:60px;""> </div>","null","html-keyboard-response","576","2128324","0.0-7.0-2.63","","","fixation_2","","","","","",""
"null","img_3.bmp","null","image-keyboard-response","577","2129326","0.0-7.0-3.63","","","img_on","","","","","",""
"null","<div style=""font-size:60px;""> </div>","null","html-keyboard-response","578","2129627","0.0-7.0-4.63","","","fixation_3","","","","","",""
"null","","null","html-keyboard-response","579","2129634","0.0-7.0-5.63","","","test","downarrow","0","1","FALSE","FALSE",""
"null","<div style=""font-size:60px;""> </div>","null","html-keyboard-response","580","2129936","0.0-7.0-6.63","","","fixation_4","","","","","",""
"262.5","arrows.png","40","image-keyboard-response","581","2130201","0.0-7.0-7.63","","","test","downarrow","0","1","FALSE","FALSE","true"
"null","<p style=""color: green; font-size:300%;"">correct: $2.50</p>","null","html-keyboard-response","582","2131453","0.0-7.0-8.63","","","","","","","","",""
"null","<div style=""font-size:60px;""> </div>","null","html-keyboard-response","583","2133005","0.0-7.0-0.64","","","fixation_1","","","","","",""
"null","","null","image-keyboard-response","584","2133013","0.0-7.0-1.64","","","test","downarrow","1","2","FALSE","FALSE",""
"null","<div style=""font-size:60px;""> </div>","null","html-keyboard-response","585","2133314","0.0-7.0-2.64","","","fixation_2","","","","","",""
"null","img_6.bmp","null","image-keyboard-response","586","2134316","0.0-7.0-3.64","","","img_on","","","","","",""
"null","<div style=""font-size:60px;""> </div>","null","html-keyboard-response","587","2134617","0.0-7.0-4.64","","","fixation_3","","","","","",""
"null","","null","html-keyboard-response","588","2134623","0.0-7.0-5.64","","","test","downarrow","1","2","FALSE","FALSE",""
"null","<div style=""font-size:60px;""> </div>","null","html-keyboard-response","589","2134925","0.0-7.0-6.64","","","fixation_4","","","","","",""
"175.09999999403954","arrows.png","37","image-keyboard-response","590","2135102","0.0-7.0-7.64","","","test","downarrow","1","2","FALSE","FALSE","false"
"null","<p style=""color: red; font-size:300%;"">incorrect: $0</p>","null","html-keyboard-response","591","2136354","0.0-7.0-8.64","","","","","","","","",""
"null","<div style=""font-size:60px;""> </div>","null","html-keyboard-response","592","2137906","0.0-7.0-0.65","","","fixation_1","","","","","",""
"null","","null","image-keyboard-response","593","2137911","0.0-7.0-1.65","","","test","uparrow","0","2","FALSE","FALSE",""
"null","<div style=""font-size:60px;""> </div>","null","html-keyboard-response","594","2138212","0.0-7.0-2.65","","","fixation_2","","","","","",""
"null","img_8.bmp","null","image-keyboard-response","595","2139214","0.0-7.0-3.65","","","img_on","","","","","",""
"null","<div style=""font-size:60px;""> </div>","null","html-keyboard-response","596","2139516","0.0-7.0-4.65","","","fixation_3","","","","","",""
"null","","null","html-keyboard-response","597","2139522","0.0-7.0-5.65","","","test","uparrow","0","2","FALSE","FALSE",""
"null","<div style=""font-size:60px;""> </div>","null","html-keyboard-response","598","2139823","0.0-7.0-6.65","","","fixation_4","","","","","",""
"86.79999999701977","arrows.png","40","image-keyboard-response","599","2139913","0.0-7.0-7.65","","","test","uparrow","0","2","FALSE","FALSE","false"
"null","<p style=""color: red; font-size:300%;"">incorrect: $0</p>","null","html-keyboard-response","600","2141164","0.0-7.0-8.65","","","","","","","","",""
"null","<div style=""font-size:60px;""> </div>","null","html-keyboard-response","601","2141966","0.0-7.0-0.66","","","fixation_1","","","","","",""
"null","","null","image-keyboard-response","602","2141972","0.0-7.0-1.66","","","test","rightarrow","0","2","FALSE","FALSE",""
"null","<div style=""font-size:60px;""> </div>","null","html-keyboard-response","603","2142273","0.0-7.0-2.66","","","fixation_2","","","","","",""
"null","img_5.bmp","null","image-keyboard-response","604","2143274","0.0-7.0-3.66","","","img_on","","","","","",""
"null","<div style=""font-size:60px;""> </div>","null","html-keyboard-response","605","2143575","0.0-7.0-4.66","","","fixation_3","","","","","",""
"null","","null","html-keyboard-response","606","2143581","0.0-7.0-5.66","","","test","rightarrow","0","2","FALSE","FALSE",""
"null","<div style=""font-size:60px;""> </div>","null","html-keyboard-response","607","2143883","0.0-7.0-6.66","","","fixation_4","","","","","",""
"92","arrows.png","39","image-keyboard-response","608","2143978","0.0-7.0-7.66","","","test","rightarrow","0","2","FALSE","FALSE","true"
"null","<p style=""color: green; font-size:300%;"">correct: $2.50</p>","null","html-keyboard-response","609","2145230","0.0-7.0-8.66","","","","","","","","",""
"null","<div style=""font-size:60px;""> </div>","null","html-keyboard-response","610","2146281","0.0-7.0-0.67","","","fixation_1","","","","","",""
"null","","null","image-keyboard-response","611","2146287","0.0-7.0-1.67","","","test","leftarrow","1","2","FALSE","FALSE",""
"null","<div style=""font-size:60px;""> </div>","null","html-keyboard-response","612","2146588","0.0-7.0-2.67","","","fixation_2","","","","","",""
"null","img_7.bmp","null","image-keyboard-response","613","2147591","0.0-7.0-3.67","","","img_on","","","","","",""
"null","<div style=""font-size:60px;""> </div>","null","html-keyboard-response","614","2147892","0.0-7.0-4.67","","","fixation_3","","","","","",""
"null","","null","html-keyboard-response","615","2147899","0.0-7.0-5.67","","","test","leftarrow","1","2","FALSE","FALSE",""
"null","<div style=""font-size:60px;""> </div>","null","html-keyboard-response","616","2148201","0.0-7.0-6.67","","","fixation_4","","","","","",""
"217.70000000298023","arrows.png","37","image-keyboard-response","617","2148420","0.0-7.0-7.67","","","test","leftarrow","1","2","FALSE","FALSE","true"
"null","<p style=""color: green; font-size:300%;"">correct: $7.50</p>","null","html-keyboard-response","618","2149672","0.0-7.0-8.67","","","","","","","","",""
"null","<div style=""font-size:60px;""> </div>","null","html-keyboard-response","619","2151224","0.0-7.0-0.68","","","fixation_1","","","","","",""
"null","","null","image-keyboard-response","620","2151230","0.0-7.0-1.68","","","test","rightarrow","0","2","FALSE","FALSE",""
"null","<div style=""font-size:60px;""> </div>","null","html-keyboard-response","621","2151531","0.0-7.0-2.68","","","fixation_2","","","","","",""
"null","img_5.bmp","null","image-keyboard-response","622","2152534","0.0-7.0-3.68","","","img_on","","","","","",""
"null","<div style=""font-size:60px;""> </div>","null","html-keyboard-response","623","2152835","0.0-7.0-4.68","","","fixation_3","","","","","",""
"null","","null","html-keyboard-response","624","2152843","0.0-7.0-5.68","","","test","rightarrow","0","2","FALSE","FALSE",""
"null","<div style=""font-size:60px;""> </div>","null","html-keyboard-response","625","2153145","0.0-7.0-6.68","","","fixation_4","","","","","",""
"190.79999999701977","arrows.png","39","image-keyboard-response","626","2153337","0.0-7.0-7.68","","","test","rightarrow","0","2","FALSE","FALSE","true"
"null","<p style=""color: green; font-size:300%;"">correct: $2.50</p>","null","html-keyboard-response","627","2154589","0.0-7.0-8.68","","","","","","","","",""
"null","<div style=""font-size:60px;""> </div>","null","html-keyboard-response","628","2156141","0.0-7.0-0.69","","","fixation_1","","","","","",""
"null","","null","image-keyboard-response","629","2156146","0.0-7.0-1.69","","","test","leftarrow","1","2","FALSE","FALSE",""
"null","<div style=""font-size:60px;""> </div>","null","html-keyboard-response","630","2156447","0.0-7.0-2.69","","","fixation_2","","","","","",""
"null","img_7.bmp","null","image-keyboard-response","631","2157450","0.0-7.0-3.69","","","img_on","","","","","",""
"null","<div style=""font-size:60px;""> </div>","null","html-keyboard-response","632","2157751","0.0-7.0-4.69","","","fixation_3","","","","","",""
"null","","null","html-keyboard-response","633","2157758","0.0-7.0-5.69","","","test","leftarrow","1","2","FALSE","FALSE",""
"null","<div style=""font-size:60px;""> </div>","null","html-keyboard-response","634","2158059","0.0-7.0-6.69","","","fixation_4","","","","","",""
"446.1000000014901","arrows.png","37","image-keyboard-response","635","2158508","0.0-7.0-7.69","","","test","leftarrow","1","2","FALSE","FALSE","true"
"null","<p style=""color: green; font-size:300%;"">correct: $7.50</p>","null","html-keyboard-response","636","2159761","0.0-7.0-8.69","","","","","","","","",""
"null","<div style=""font-size:60px;""> </div>","null","html-keyboard-response","637","2161312","0.0-7.0-0.70","","","fixation_1","","","","","",""
"null","","null","image-keyboard-response","638","2161319","0.0-7.0-1.70","","","test","uparrow","0","2","FALSE","FALSE",""
"null","<div style=""font-size:60px;""> </div>","null","html-keyboard-response","639","2161620","0.0-7.0-2.70","","","fixation_2","","","","","",""
"null","img_8.bmp","null","image-keyboard-response","640","2162622","0.0-7.0-3.70","","","img_on","","","","","",""
"null","<div style=""font-size:60px;""> </div>","null","html-keyboard-response","641","2162924","0.0-7.0-4.70","","","fixation_3","","","","","",""
"null","","null","html-keyboard-response","642","2162930","0.0-7.0-5.70","","","test","uparrow","0","2","FALSE","FALSE",""
"null","<div style=""font-size:60px;""> </div>","null","html-keyboard-response","643","2163231","0.0-7.0-6.70","","","fixation_4","","","","","",""
"111.79999999701977","arrows.png","40","image-keyboard-response","644","2163345","0.0-7.0-7.70","","","test","uparrow","0","2","FALSE","FALSE","false"
"null","<p style=""color: red; font-size:300%;"">incorrect: $0</p>","null","html-keyboard-response","645","2164597","0.0-7.0-8.70","","","","","","","","",""
"null","<div style=""font-size:60px;""> </div>","null","html-keyboard-response","646","2165899","0.0-7.0-0.71","","","fixation_1","","","","","",""
"null","","null","image-keyboard-response","647","2165904","0.0-7.0-1.71","","","test","downarrow","1","2","FALSE","FALSE",""
"null","<div style=""font-size:60px;""> </div>","null","html-keyboard-response","648","2166205","0.0-7.0-2.71","","","fixation_2","","","","","",""
"null","img_6.bmp","null","image-keyboard-response","649","2167207","0.0-7.0-3.71","","","img_on","","","","","",""
"null","<div style=""font-size:60px;""> </div>","null","html-keyboard-response","650","2167508","0.0-7.0-4.71","","","fixation_3","","","","","",""
"null","","null","html-keyboard-response","651","2167514","0.0-7.0-5.71","","","test","downarrow","1","2","FALSE","FALSE",""
"null","<div style=""font-size:60px;""> </div>","null","html-keyboard-response","652","2167817","0.0-7.0-6.71","","","fixation_4","","","","","",""
"20.80000000447035","arrows.png","40","image-keyboard-response","653","2167839","0.0-7.0-7.71","","","test","downarrow","1","2","FALSE","FALSE","true"
"null","<p style=""color: green; font-size:300%;"">correct: $7.50</p>","null","html-keyboard-response","654","2169091","0.0-7.0-8.71","","","","","","","","",""
"null","<div style=""font-size:60px;""> </div>","null","html-keyboard-response","655","2169893","0.0-7.0-0.72","","","fixation_1","","","","","",""
"null","","null","image-keyboard-response","656","2169899","0.0-7.0-1.72","","","test","leftarrow","1","2","FALSE","FALSE",""
"null","<div style=""font-size:60px;""> </div>","null","html-keyboard-response","657","2170200","0.0-7.0-2.72","","","fixation_2","","","","","",""
"null","img_7.bmp","null","image-keyboard-response","658","2171202","0.0-7.0-3.72","","","img_on","","","","","",""
"null","<div style=""font-size:60px;""> </div>","null","html-keyboard-response","659","2171503","0.0-7.0-4.72","","","fixation_3","","","","","",""
"null","","null","html-keyboard-response","660","2171511","0.0-7.0-5.72","","","test","leftarrow","1","2","FALSE","FALSE",""
"null","<div style=""font-size:60px;""> </div>","null","html-keyboard-response","661","2171812","0.0-7.0-6.72","","","fixation_4","","","","","",""
"179.39999999850988","arrows.png","37","image-keyboard-response","662","2171994","0.0-7.0-7.72","","","test","leftarrow","1","2","FALSE","FALSE","true"
"null","<p style=""color: green; font-size:300%;"">correct: $7.50</p>","null","html-keyboard-response","663","2173245","0.0-7.0-8.72","","","","","","","","",""
"null","<div style=""font-size:60px;""> </div>","null","html-keyboard-response","664","2173797","0.0-7.0-0.73","","","fixation_1","","","","","",""
"null","","null","image-keyboard-response","665","2173803","0.0-7.0-1.73","","","test","rightarrow","0","2","FALSE","FALSE",""
"null","<div style=""font-size:60px;""> </div>","null","html-keyboard-response","666","2174108","0.0-7.0-2.73","","","fixation_2","","","","","",""
"null","img_5.bmp","null","image-keyboard-response","667","2175109","0.0-7.0-3.73","","","img_on","","","","","",""
"null","<div style=""font-size:60px;""> </div>","null","html-keyboard-response","668","2175411","0.0-7.0-4.73","","","fixation_3","","","","","",""
"null","","null","html-keyboard-response","669","2175416","0.0-7.0-5.73","","","test","rightarrow","0","2","FALSE","FALSE",""
"null","<div style=""font-size:60px;""> </div>","null","html-keyboard-response","670","2175717","0.0-7.0-6.73","","","fixation_4","","","","","",""
"241.69999999552965","arrows.png","39","image-keyboard-response","671","2175960","0.0-7.0-7.73","","","test","rightarrow","0","2","FALSE","FALSE","true"
"null","<p style=""color: green; font-size:300%;"">correct: $2.50</p>","null","html-keyboard-response","672","2177212","0.0-7.0-8.73","","","","","","","","",""
"null","<div style=""font-size:60px;""> </div>","null","html-keyboard-response","673","2178264","0.0-7.0-0.74","","","fixation_1","","","","","",""
"null","","null","image-keyboard-response","674","2178270","0.0-7.0-1.74","","","test","downarrow","1","2","FALSE","FALSE",""
"null","<div style=""font-size:60px;""> </div>","null","html-keyboard-response","675","2178572","0.0-7.0-2.74","","","fixation_2","","","","","",""
"null","img_6.bmp","null","image-keyboard-response","676","2179574","0.0-7.0-3.74","","","img_on","","","","","",""
"null","<div style=""font-size:60px;""> </div>","null","html-keyboard-response","677","2179875","0.0-7.0-4.74","","","fixation_3","","","","","",""
"null","","null","html-keyboard-response","678","2179882","0.0-7.0-5.74","","","test","downarrow","1","2","FALSE","FALSE",""
"null","<div style=""font-size:60px;""> </div>","null","html-keyboard-response","679","2180184","0.0-7.0-6.74","","","fixation_4","","","","","",""
"255.90000000596046","arrows.png","40","image-keyboard-response","680","2180442","0.0-7.0-7.74","","","test","downarrow","1","2","FALSE","FALSE","true"
"null","<p style=""color: green; font-size:300%;"">correct: $7.50</p>","null","html-keyboard-response","681","2181694","0.0-7.0-8.74","","","","","","","","",""
"null","<div style=""font-size:60px;""> </div>","null","html-keyboard-response","682","2182995","0.0-7.0-0.75","","","fixation_1","","","","","",""
"null","","null","image-keyboard-response","683","2183003","0.0-7.0-1.75","","","test","uparrow","0","2","FALSE","FALSE",""
"null","<div style=""font-size:60px;""> </div>","null","html-keyboard-response","684","2183305","0.0-7.0-2.75","","","fixation_2","","","","","",""
"null","img_8.bmp","null","image-keyboard-response","685","2184307","0.0-7.0-3.75","","","img_on","","","","","",""
"null","<div style=""font-size:60px;""> </div>","null","html-keyboard-response","686","2184609","0.0-7.0-4.75","","","fixation_3","","","","","",""
"null","","null","html-keyboard-response","687","2184615","0.0-7.0-5.75","","","test","uparrow","0","2","FALSE","FALSE",""
"null","<div style=""font-size:60px;""> </div>","null","html-keyboard-response","688","2184916","0.0-7.0-6.75","","","fixation_4","","","","","",""
"96.90000000596046","arrows.png","40","image-keyboard-response","689","2185015","0.0-7.0-7.75","","","test","uparrow","0","2","FALSE","FALSE","false"
"null","<p style=""color: red; font-size:300%;"">incorrect: $0</p>","null","html-keyboard-response","690","2186266","0.0-7.0-8.75","","","","","","","","",""
"null","<div style=""font-size:60px;""> </div>","null","html-keyboard-response","691","2187568","0.0-7.0-0.76","","","fixation_1","","","","","",""
"null","","null","image-keyboard-response","692","2187574","0.0-7.0-1.76","","","test","downarrow","1","2","FALSE","FALSE",""
"null","<div style=""font-size:60px;""> </div>","null","html-keyboard-response","693","2187876","0.0-7.0-2.76","","","fixation_2","","","","","",""
"null","img_6.bmp","null","image-keyboard-response","694","2188877","0.0-7.0-3.76","","","img_on","","","","","",""
"null","<div style=""font-size:60px;""> </div>","null","html-keyboard-response","695","2189179","0.0-7.0-4.76","","","fixation_3","","","","","",""
"null","","null","html-keyboard-response","696","2189184","0.0-7.0-5.76","","","test","downarrow","1","2","FALSE","FALSE",""
"null","<div style=""font-size:60px;""> </div>","null","html-keyboard-response","697","2189485","0.0-7.0-6.76","","","fixation_4","","","","","",""
"187.5","arrows.png","40","image-keyboard-response","698","2189675","0.0-7.0-7.76","","","test","downarrow","1","2","FALSE","FALSE","true"
"null","<p style=""color: green; font-size:300%;"">correct: $7.50</p>","null","html-keyboard-response","699","2190927","0.0-7.0-8.76","","","","","","","","",""
"null","<div style=""font-size:60px;""> </div>","null","html-keyboard-response","700","2191729","0.0-7.0-0.77","","","fixation_1","","","","","",""
"null","","null","image-keyboard-response","701","2191736","0.0-7.0-1.77","","","test","uparrow","0","2","FALSE","FALSE",""
"null","<div style=""font-size:60px;""> </div>","null","html-keyboard-response","702","2192038","0.0-7.0-2.77","","","fixation_2","","","","","",""
"null","img_8.bmp","null","image-keyboard-response","703","2193040","0.0-7.0-3.77","","","img_on","","","","","",""
"null","<div style=""font-size:60px;""> </div>","null","html-keyboard-response","704","2193342","0.0-7.0-4.77","","","fixation_3","","","","","",""
