"rt","stimulus","key_press","trial_type","trial_index","time_elapsed","internal_node_id","responses","view_history","test_part","correct_response","outcome","context","cc","sc","correct"
"5988.200000047684","<p><b>Welcome to the Picture Learning Game!</b></p>
      <p>The game will take ~35 minutes to complete, and you can make up to $17.50.</p>
      <p>You must use a desktop or laptop computer computer (no mobile devices).</p>
      <p><em>Press any key to continue.</em></p>","32","html-keyboard-response","0","6020","0.0-0.0","","","","","","","","",""
"6001.899999856949","","","survey-text","1","12037","0.0-1.0","{""aws"":""AOIR8V07FYMH5""}","","","","","","","",""
"46125.299999952316","","","survey-text","2","58172","0.0-2.0","{""age"":""34"",""english"":""Y"",""handedness"":""R"",""desktop"":""Y""}","","","","","","","",""
"187683.09999990463","","","instructions","3","245856","0.0-3.0","","[{""page_index"":0,""viewing_time"":1494},{""page_index"":1,""viewing_time"":6559.099999904633},{""page_index"":2,""viewing_time"":2715.9000000953674},{""page_index"":3,""viewing_time"":175128},{""page_index"":4,""viewing_time"":1785.7000000476837}]","","","","","","",""
"null","sample1.bmp","null","image-keyboard-response","4","246858","0.0-4.0","","","","","","","","",""
"619","arrows.png","38","image-keyboard-response","5","247779","0.0-5.0","","","","","","","","",""
"358085.09999990463","","","instructions","6","605865","0.0-6.0","","[{""page_index"":0,""viewing_time"":1693.7999999523163},{""page_index"":1,""viewing_time"":1397.8999998569489},{""page_index"":2,""viewing_time"":9384.300000190735},{""page_index"":3,""viewing_time"":7367.899999856949},{""page_index"":4,""viewing_time"":331824.90000009537},{""page_index"":5,""viewing_time"":5423.5},{""page_index"":6,""viewing_time"":992.3999998569489}]","","","","","","",""
"null","<div style=""font-size:60px;""> </div>","null","html-keyboard-response","7","606167","0.0-7.0-0.0","","","fixation_1","","","","","",""
"null","","null","image-keyboard-response","8","606170","0.0-7.0-1.0","","","test","uparrow","1","1","FALSE","FALSE",""
"null","<div style=""font-size:60px;""> </div>","null","html-keyboard-response","9","606472","0.0-7.0-2.0","","","fixation_2","","","","","",""
"null","img_1.bmp","null","image-keyboard-response","10","607474","0.0-7.0-3.0","","","img_on","","","","","",""
"null","<div style=""font-size:60px;""> </div>","null","html-keyboard-response","11","607777","0.0-7.0-4.0","","","fixation_3","","","","","",""
"null","","null","html-keyboard-response","12","607783","0.0-7.0-5.0","","","test","uparrow","1","1","FALSE","FALSE",""
"null","<div style=""font-size:60px;""> </div>","null","html-keyboard-response","13","608084","0.0-7.0-6.0","","","fixation_4","","","","","",""
"908.3999998569489","arrows.png","38","image-keyboard-response","14","608994","0.0-7.0-7.0","","","test","uparrow","1","1","FALSE","FALSE","true"
"null","<p style=""color: green; font-size:300%;"">correct: $7.50</p>","null","html-keyboard-response","15","610248","0.0-7.0-8.0","","","","","","","","",""
"null","<div style=""font-size:60px;""> </div>","null","html-keyboard-response","16","611302","0.0-7.0-0.1","","","fixation_1","","","","","",""
"null","","null","image-keyboard-response","17","611307","0.0-7.0-1.1","","","test","rightarrow","1","1","FALSE","FALSE",""
"null","<div style=""font-size:60px;""> </div>","null","html-keyboard-response","18","611608","0.0-7.0-2.1","","","fixation_2","","","","","",""
"null","img_2.bmp","null","image-keyboard-response","19","612610","0.0-7.0-3.1","","","img_on","","","","","",""
"null","<div style=""font-size:60px;""> </div>","null","html-keyboard-response","20","612911","0.0-7.0-4.1","","","fixation_3","","","","","",""
"null","","null","html-keyboard-response","21","612919","0.0-7.0-5.1","","","test","rightarrow","1","1","FALSE","FALSE",""
"null","<div style=""font-size:60px;""> </div>","null","html-keyboard-response","22","613226","0.0-7.0-6.1","","","fixation_4","","","","","",""
"414.2999999523163","arrows.png","40","image-keyboard-response","23","613642","0.0-7.0-7.1","","","test","rightarrow","1","1","FALSE","FALSE","false"
"null","<p style=""color: red; font-size:300%;"">incorrect: $0</p>","null","html-keyboard-response","24","614894","0.0-7.0-8.1","","","","","","","","",""
"null","<div style=""font-size:60px;""> </div>","null","html-keyboard-response","25","615696","0.0-7.0-0.2","","","fixation_1","","","","","",""
"null","","null","image-keyboard-response","26","615702","0.0-7.0-1.2","","","test","leftarrow","0","1","FALSE","FALSE",""
"null","<div style=""font-size:60px;""> </div>","null","html-keyboard-response","27","616005","0.0-7.0-2.2","","","fixation_2","","","","","",""
"null","img_4.bmp","null","image-keyboard-response","28","617007","0.0-7.0-3.2","","","img_on","","","","","",""
"null","<div style=""font-size:60px;""> </div>","null","html-keyboard-response","29","617309","0.0-7.0-4.2","","","fixation_3","","","","","",""
"null","","null","html-keyboard-response","30","617315","0.0-7.0-5.2","","","test","leftarrow","0","1","FALSE","FALSE",""
"null","<div style=""font-size:60px;""> </div>","null","html-keyboard-response","31","617617","0.0-7.0-6.2","","","fixation_4","","","","","",""
"431.60000014305115","arrows.png","39","image-keyboard-response","32","618051","0.0-7.0-7.2","","","test","leftarrow","0","1","FALSE","FALSE","false"
"null","<p style=""color: red; font-size:300%;"">incorrect: $0</p>","null","html-keyboard-response","33","619303","0.0-7.0-8.2","","","","","","","","",""
"null","<div style=""font-size:60px;""> </div>","null","html-keyboard-response","34","619856","0.0-7.0-0.3","","","fixation_1","","","","","",""
"null","","null","image-keyboard-response","35","619864","0.0-7.0-1.3","","","test","downarrow","0","1","FALSE","FALSE",""
"null","<div style=""font-size:60px;""> </div>","null","html-keyboard-response","36","620165","0.0-7.0-2.3","","","fixation_2","","","","","",""
"null","img_3.bmp","null","image-keyboard-response","37","621167","0.0-7.0-3.3","","","img_on","","","","","",""
"null","<div style=""font-size:60px;""> </div>","null","html-keyboard-response","38","621468","0.0-7.0-4.3","","","fixation_3","","","","","",""
"null","","null","html-keyboard-response","39","621474","0.0-7.0-5.3","","","test","downarrow","0","1","FALSE","FALSE",""
"null","<div style=""font-size:60px;""> </div>","null","html-keyboard-response","40","621783","0.0-7.0-6.3","","","fixation_4","","","","","",""
"384.7000000476837","arrows.png","39","image-keyboard-response","41","622170","0.0-7.0-7.3","","","test","downarrow","0","1","FALSE","FALSE","false"
"null","<p style=""color: red; font-size:300%;"">incorrect: $0</p>","null","html-keyboard-response","42","623423","0.0-7.0-8.3","","","","","","","","",""
"null","<div style=""font-size:60px;""> </div>","null","html-keyboard-response","43","624976","0.0-7.0-0.4","","","fixation_1","","","","","",""
"null","","null","image-keyboard-response","44","624981","0.0-7.0-1.4","","","test","rightarrow","1","1","FALSE","FALSE",""
"null","<div style=""font-size:60px;""> </div>","null","html-keyboard-response","45","625283","0.0-7.0-2.4","","","fixation_2","","","","","",""
"null","img_2.bmp","null","image-keyboard-response","46","626287","0.0-7.0-3.4","","","img_on","","","","","",""
"null","<div style=""font-size:60px;""> </div>","null","html-keyboard-response","47","626589","0.0-7.0-4.4","","","fixation_3","","","","","",""
"null","","null","html-keyboard-response","48","626595","0.0-7.0-5.4","","","test","rightarrow","1","1","FALSE","FALSE",""
"null","<div style=""font-size:60px;""> </div>","null","html-keyboard-response","49","626897","0.0-7.0-6.4","","","fixation_4","","","","","",""
"430.89999985694885","arrows.png","40","image-keyboard-response","50","627329","0.0-7.0-7.4","","","test","rightarrow","1","1","FALSE","FALSE","false"
"null","<p style=""color: red; font-size:300%;"">incorrect: $0</p>","null","html-keyboard-response","51","628582","0.0-7.0-8.4","","","","","","","","",""
"null","<div style=""font-size:60px;""> </div>","null","html-keyboard-response","52","629635","0.0-7.0-0.5","","","fixation_1","","","","","",""
"null","","null","image-keyboard-response","53","629640","0.0-7.0-1.5","","","test","leftarrow","0","1","FALSE","FALSE",""
"null","<div style=""font-size:60px;""> </div>","null","html-keyboard-response","54","629941","0.0-7.0-2.5","","","fixation_2","","","","","",""
"null","img_4.bmp","null","image-keyboard-response","55","630943","0.0-7.0-3.5","","","img_on","","","","","",""
"null","<div style=""font-size:60px;""> </div>","null","html-keyboard-response","56","631246","0.0-7.0-4.5","","","fixation_3","","","","","",""
"null","","null","html-keyboard-response","57","631252","0.0-7.0-5.5","","","test","leftarrow","0","1","FALSE","FALSE",""
"null","<div style=""font-size:60px;""> </div>","null","html-keyboard-response","58","631553","0.0-7.0-6.5","","","fixation_4","","","","","",""
"966.3999998569489","arrows.png","38","image-keyboard-response","59","632522","0.0-7.0-7.5","","","test","leftarrow","0","1","FALSE","FALSE","false"
"null","<p style=""color: red; font-size:300%;"">incorrect: $0</p>","null","html-keyboard-response","60","633775","0.0-7.0-8.5","","","","","","","","",""
"null","<div style=""font-size:60px;""> </div>","null","html-keyboard-response","61","634827","0.0-7.0-0.6","","","fixation_1","","","","","",""
"null","","null","image-keyboard-response","62","634834","0.0-7.0-1.6","","","test","uparrow","1","1","FALSE","FALSE",""
"null","<div style=""font-size:60px;""> </div>","null","html-keyboard-response","63","635136","0.0-7.0-2.6","","","fixation_2","","","","","",""
"null","img_1.bmp","null","image-keyboard-response","64","636139","0.0-7.0-3.6","","","img_on","","","","","",""
"null","<div style=""font-size:60px;""> </div>","null","html-keyboard-response","65","636441","0.0-7.0-4.6","","","fixation_3","","","","","",""
"null","","null","html-keyboard-response","66","636447","0.0-7.0-5.6","","","test","uparrow","1","1","FALSE","FALSE",""
"null","<div style=""font-size:60px;""> </div>","null","html-keyboard-response","67","636748","0.0-7.0-6.6","","","fixation_4","","","","","",""
"306.90000009536743","arrows.png","38","image-keyboard-response","68","637056","0.0-7.0-7.6","","","test","uparrow","1","1","FALSE","FALSE","true"
"null","<p style=""color: green; font-size:300%;"">correct: $7.50</p>","null","html-keyboard-response","69","638308","0.0-7.0-8.6","","","","","","","","",""
"null","<div style=""font-size:60px;""> </div>","null","html-keyboard-response","70","639112","0.0-7.0-0.7","","","fixation_1","","","","","",""
"null","","null","image-keyboard-response","71","639120","0.0-7.0-1.7","","","test","downarrow","0","1","FALSE","FALSE",""
"null","<div style=""font-size:60px;""> </div>","null","html-keyboard-response","72","639421","0.0-7.0-2.7","","","fixation_2","","","","","",""
"null","img_3.bmp","null","image-keyboard-response","73","640423","0.0-7.0-3.7","","","img_on","","","","","",""
"null","<div style=""font-size:60px;""> </div>","null","html-keyboard-response","74","640725","0.0-7.0-4.7","","","fixation_3","","","","","",""
"null","","null","html-keyboard-response","75","640732","0.0-7.0-5.7","","","test","downarrow","0","1","FALSE","FALSE",""
"null","<div style=""font-size:60px;""> </div>","null","html-keyboard-response","76","641032","0.0-7.0-6.7","","","fixation_4","","","","","",""
"662.8000001907349","arrows.png","39","image-keyboard-response","77","641697","0.0-7.0-7.7","","","test","downarrow","0","1","FALSE","FALSE","false"
"null","<p style=""color: red; font-size:300%;"">incorrect: $0</p>","null","html-keyboard-response","78","642950","0.0-7.0-8.7","","","","","","","","",""
"null","<div style=""font-size:60px;""> </div>","null","html-keyboard-response","79","643753","0.0-7.0-0.8","","","fixation_1","","","","","",""
"null","","null","image-keyboard-response","80","643760","0.0-7.0-1.8","","","test","downarrow","0","1","FALSE","FALSE",""
"null","<div style=""font-size:60px;""> </div>","null","html-keyboard-response","81","644061","0.0-7.0-2.8","","","fixation_2","","","","","",""
"null","img_3.bmp","null","image-keyboard-response","82","645063","0.0-7.0-3.8","","","img_on","","","","","",""
"null","<div style=""font-size:60px;""> </div>","null","html-keyboard-response","83","645365","0.0-7.0-4.8","","","fixation_3","","","","","",""
"null","","null","html-keyboard-response","84","645372","0.0-7.0-5.8","","","test","downarrow","0","1","FALSE","FALSE",""
"null","<div style=""font-size:60px;""> </div>","null","html-keyboard-response","85","645673","0.0-7.0-6.8","","","fixation_4","","","","","",""
"366.10000014305115","arrows.png","37","image-keyboard-response","86","646041","0.0-7.0-7.8","","","test","downarrow","0","1","FALSE","FALSE","false"
"null","<p style=""color: red; font-size:300%;"">incorrect: $0</p>","null","html-keyboard-response","87","647293","0.0-7.0-8.8","","","","","","","","",""
"null","<div style=""font-size:60px;""> </div>","null","html-keyboard-response","88","647847","0.0-7.0-0.9","","","fixation_1","","","","","",""
"null","","null","image-keyboard-response","89","647853","0.0-7.0-1.9","","","test","uparrow","1","1","FALSE","FALSE",""
"null","<div style=""font-size:60px;""> </div>","null","html-keyboard-response","90","648156","0.0-7.0-2.9","","","fixation_2","","","","","",""
"null","img_1.bmp","null","image-keyboard-response","91","649159","0.0-7.0-3.9","","","img_on","","","","","",""
"null","<div style=""font-size:60px;""> </div>","null","html-keyboard-response","92","649461","0.0-7.0-4.9","","","fixation_3","","","","","",""
"null","","null","html-keyboard-response","93","649468","0.0-7.0-5.9","","","test","uparrow","1","1","FALSE","FALSE",""
"null","<div style=""font-size:60px;""> </div>","null","html-keyboard-response","94","649770","0.0-7.0-6.9","","","fixation_4","","","","","",""
"381","arrows.png","38","image-keyboard-response","95","650153","0.0-7.0-7.9","","","test","uparrow","1","1","FALSE","FALSE","true"
"null","<p style=""color: green; font-size:300%;"">correct: $7.50</p>","null","html-keyboard-response","96","651406","0.0-7.0-8.9","","","","","","","","",""
"null","<div style=""font-size:60px;""> </div>","null","html-keyboard-response","97","652208","0.0-7.0-0.10","","","fixation_1","","","","","",""
"null","","null","image-keyboard-response","98","652214","0.0-7.0-1.10","","","test","leftarrow","0","1","FALSE","FALSE",""
"null","<div style=""font-size:60px;""> </div>","null","html-keyboard-response","99","652515","0.0-7.0-2.10","","","fixation_2","","","","","",""
"null","img_4.bmp","null","image-keyboard-response","100","653518","0.0-7.0-3.10","","","img_on","","","","","",""
"null","<div style=""font-size:60px;""> </div>","null","html-keyboard-response","101","653820","0.0-7.0-4.10","","","fixation_3","","","","","",""
"null","","null","html-keyboard-response","102","653826","0.0-7.0-5.10","","","test","leftarrow","0","1","FALSE","FALSE",""
"null","<div style=""font-size:60px;""> </div>","null","html-keyboard-response","103","654128","0.0-7.0-6.10","","","fixation_4","","","","","",""
"814.7999999523163","arrows.png","40","image-keyboard-response","104","654945","0.0-7.0-7.10","","","test","leftarrow","0","1","FALSE","FALSE","false"
"null","<p style=""color: red; font-size:300%;"">incorrect: $0</p>","null","html-keyboard-response","105","656197","0.0-7.0-8.10","","","","","","","","",""
"null","<div style=""font-size:60px;""> </div>","null","html-keyboard-response","106","657251","0.0-7.0-0.11","","","fixation_1","","","","","",""
"null","","null","image-keyboard-response","107","657256","0.0-7.0-1.11","","","test","rightarrow","1","1","FALSE","FALSE",""
"null","<div style=""font-size:60px;""> </div>","null","html-keyboard-response","108","657557","0.0-7.0-2.11","","","fixation_2","","","","","",""
"null","img_2.bmp","null","image-keyboard-response","109","658562","0.0-7.0-3.11","","","img_on","","","","","",""
"null","<div style=""font-size:60px;""> </div>","null","html-keyboard-response","110","658863","0.0-7.0-4.11","","","fixation_3","","","","","",""
"null","","null","html-keyboard-response","111","658869","0.0-7.0-5.11","","","test","rightarrow","1","1","FALSE","FALSE",""
"null","<div style=""font-size:60px;""> </div>","null","html-keyboard-response","112","659171","0.0-7.0-6.11","","","fixation_4","","","","","",""
"445.89999985694885","arrows.png","39","image-keyboard-response","113","659618","0.0-7.0-7.11","","","test","rightarrow","1","1","FALSE","FALSE","true"
"null","<p style=""color: green; font-size:300%;"">correct: $7.50</p>","null","html-keyboard-response","114","660870","0.0-7.0-8.11","","","","","","","","",""
"null","<div style=""font-size:60px;""> </div>","null","html-keyboard-response","115","662423","0.0-7.0-0.12","","","fixation_1","","","","","",""
"null","","null","image-keyboard-response","116","662431","0.0-7.0-1.12","","","test","leftarrow","0","1","FALSE","FALSE",""
"null","<div style=""font-size:60px;""> </div>","null","html-keyboard-response","117","662732","0.0-7.0-2.12","","","fixation_2","","","","","",""
"null","img_4.bmp","null","image-keyboard-response","118","663735","0.0-7.0-3.12","","","img_on","","","","","",""
"null","<div style=""font-size:60px;""> </div>","null","html-keyboard-response","119","664037","0.0-7.0-4.12","","","fixation_3","","","","","",""
"null","","null","html-keyboard-response","120","664043","0.0-7.0-5.12","","","test","leftarrow","0","1","FALSE","FALSE",""
"null","<div style=""font-size:60px;""> </div>","null","html-keyboard-response","121","664345","0.0-7.0-6.12","","","fixation_4","","","","","",""
"1518.0999999046326","arrows.png","38","image-keyboard-response","122","665864","0.0-7.0-7.12","","","test","leftarrow","0","1","FALSE","FALSE","false"
"null","<p style=""color: red; font-size:300%;"">incorrect: $0</p>","null","html-keyboard-response","123","667117","0.0-7.0-8.12","","","","","","","","",""
"null","<div style=""font-size:60px;""> </div>","null","html-keyboard-response","124","668670","0.0-7.0-0.13","","","fixation_1","","","","","",""
"null","","null","image-keyboard-response","125","668677","0.0-7.0-1.13","","","test","uparrow","1","1","FALSE","FALSE",""
"null","<div style=""font-size:60px;""> </div>","null","html-keyboard-response","126","668978","0.0-7.0-2.13","","","fixation_2","","","","","",""
"null","img_1.bmp","null","image-keyboard-response","127","669979","0.0-7.0-3.13","","","img_on","","","","","",""
"null","<div style=""font-size:60px;""> </div>","null","html-keyboard-response","128","670281","0.0-7.0-4.13","","","fixation_3","","","","","",""
"null","","null","html-keyboard-response","129","670286","0.0-7.0-5.13","","","test","uparrow","1","1","FALSE","FALSE",""
"null","<div style=""font-size:60px;""> </div>","null","html-keyboard-response","130","670587","0.0-7.0-6.13","","","fixation_4","","","","","",""
"285.2000000476837","arrows.png","38","image-keyboard-response","131","670874","0.0-7.0-7.13","","","test","uparrow","1","1","FALSE","FALSE","true"
"null","<p style=""color: green; font-size:300%;"">correct: $7.50</p>","null","html-keyboard-response","132","672126","0.0-7.0-8.13","","","","","","","","",""
"null","<div style=""font-size:60px;""> </div>","null","html-keyboard-response","133","673679","0.0-7.0-0.14","","","fixation_1","","","","","",""
"null","","null","image-keyboard-response","134","673684","0.0-7.0-1.14","","","test","rightarrow","1","1","FALSE","FALSE",""
"null","<div style=""font-size:60px;""> </div>","null","html-keyboard-response","135","673985","0.0-7.0-2.14","","","fixation_2","","","","","",""
"null","img_2.bmp","null","image-keyboard-response","136","674988","0.0-7.0-3.14","","","img_on","","","","","",""
"null","<div style=""font-size:60px;""> </div>","null","html-keyboard-response","137","675289","0.0-7.0-4.14","","","fixation_3","","","","","",""
"null","","null","html-keyboard-response","138","675295","0.0-7.0-5.14","","","test","rightarrow","1","1","FALSE","FALSE",""
"null","<div style=""font-size:60px;""> </div>","null","html-keyboard-response","139","675597","0.0-7.0-6.14","","","fixation_4","","","","","",""
"291.09999990463257","arrows.png","38","image-keyboard-response","140","675890","0.0-7.0-7.14","","","test","rightarrow","1","1","FALSE","FALSE","false"
"null","<p style=""color: red; font-size:300%;"">incorrect: $0</p>","null","html-keyboard-response","141","677148","0.0-7.0-8.14","","","","","","","","",""
"null","<div style=""font-size:60px;""> </div>","null","html-keyboard-response","142","677951","0.0-7.0-0.15","","","fixation_1","","","","","",""
"null","","null","image-keyboard-response","143","677957","0.0-7.0-1.15","","","test","downarrow","0","1","FALSE","FALSE",""
"null","<div style=""font-size:60px;""> </div>","null","html-keyboard-response","144","678259","0.0-7.0-2.15","","","fixation_2","","","","","",""
"null","img_3.bmp","null","image-keyboard-response","145","679263","0.0-7.0-3.15","","","img_on","","","","","",""
"null","<div style=""font-size:60px;""> </div>","null","html-keyboard-response","146","679565","0.0-7.0-4.15","","","fixation_3","","","","","",""
"null","","null","html-keyboard-response","147","679570","0.0-7.0-5.15","","","test","downarrow","0","1","FALSE","FALSE",""
"null","<div style=""font-size:60px;""> </div>","null","html-keyboard-response","148","679871","0.0-7.0-6.15","","","fixation_4","","","","","",""
"321.7000000476837","arrows.png","38","image-keyboard-response","149","680194","0.0-7.0-7.15","","","test","downarrow","0","1","FALSE","FALSE","false"
"null","<p style=""color: red; font-size:300%;"">incorrect: $0</p>","null","html-keyboard-response","150","681446","0.0-7.0-8.15","","","","","","","","",""
"null","<div style=""font-size:60px;""> </div>","null","html-keyboard-response","151","682497","0.0-7.0-0.16","","","fixation_1","","","","","",""
"null","","null","image-keyboard-response","152","682504","0.0-7.0-1.16","","","test","downarrow","0","1","FALSE","FALSE",""
"null","<div style=""font-size:60px;""> </div>","null","html-keyboard-response","153","682818","0.0-7.0-2.16","","","fixation_2","","","","","",""
"null","img_3.bmp","null","image-keyboard-response","154","683821","0.0-7.0-3.16","","","img_on","","","","","",""
"null","<div style=""font-size:60px;""> </div>","null","html-keyboard-response","155","684123","0.0-7.0-4.16","","","fixation_3","","","","","",""
"null","","null","html-keyboard-response","156","684129","0.0-7.0-5.16","","","test","downarrow","0","1","FALSE","FALSE",""
"null","<div style=""font-size:60px;""> </div>","null","html-keyboard-response","157","684430","0.0-7.0-6.16","","","fixation_4","","","","","",""
"209.09999990463257","arrows.png","37","image-keyboard-response","158","684640","0.0-7.0-7.16","","","test","downarrow","0","1","FALSE","FALSE","false"
"null","<p style=""color: red; font-size:300%;"">incorrect: $0</p>","null","html-keyboard-response","159","685892","0.0-7.0-8.16","","","","","","","","",""
"null","<div style=""font-size:60px;""> </div>","null","html-keyboard-response","160","686945","0.0-7.0-0.17","","","fixation_1","","","","","",""
"null","","null","image-keyboard-response","161","686950","0.0-7.0-1.17","","","test","uparrow","1","1","FALSE","FALSE",""
"null","<div style=""font-size:60px;""> </div>","null","html-keyboard-response","162","687252","0.0-7.0-2.17","","","fixation_2","","","","","",""
"null","img_1.bmp","null","image-keyboard-response","163","688255","0.0-7.0-3.17","","","img_on","","","","","",""
"null","<div style=""font-size:60px;""> </div>","null","html-keyboard-response","164","688557","0.0-7.0-4.17","","","fixation_3","","","","","",""
"null","","null","html-keyboard-response","165","688563","0.0-7.0-5.17","","","test","uparrow","1","1","FALSE","FALSE",""
"null","<div style=""font-size:60px;""> </div>","null","html-keyboard-response","166","688865","0.0-7.0-6.17","","","fixation_4","","","","","",""
"286.80000019073486","arrows.png","38","image-keyboard-response","167","689153","0.0-7.0-7.17","","","test","uparrow","1","1","FALSE","FALSE","true"
"null","<p style=""color: green; font-size:300%;"">correct: $7.50</p>","null","html-keyboard-response","168","690406","0.0-7.0-8.17","","","","","","","","",""
"null","<div style=""font-size:60px;""> </div>","null","html-keyboard-response","169","691209","0.0-7.0-0.18","","","fixation_1","","","","","",""
"null","","null","image-keyboard-response","170","691214","0.0-7.0-1.18","","","test","leftarrow","0","1","FALSE","FALSE",""
"null","<div style=""font-size:60px;""> </div>","null","html-keyboard-response","171","691516","0.0-7.0-2.18","","","fixation_2","","","","","",""
"null","img_4.bmp","null","image-keyboard-response","172","692518","0.0-7.0-3.18","","","img_on","","","","","",""
"null","<div style=""font-size:60px;""> </div>","null","html-keyboard-response","173","692820","0.0-7.0-4.18","","","fixation_3","","","","","",""
"null","","null","html-keyboard-response","174","692826","0.0-7.0-5.18","","","test","leftarrow","0","1","FALSE","FALSE",""
"null","<div style=""font-size:60px;""> </div>","null","html-keyboard-response","175","693128","0.0-7.0-6.18","","","fixation_4","","","","","",""
"512.2999999523163","arrows.png","38","image-keyboard-response","176","693642","0.0-7.0-7.18","","","test","leftarrow","0","1","FALSE","FALSE","false"
"null","<p style=""color: red; font-size:300%;"">incorrect: $0</p>","null","html-keyboard-response","177","694894","0.0-7.0-8.18","","","","","","","","",""
"null","<div style=""font-size:60px;""> </div>","null","html-keyboard-response","178","695946","0.0-7.0-0.19","","","fixation_1","","","","","",""
"null","","null","image-keyboard-response","179","695952","0.0-7.0-1.19","","","test","rightarrow","1","1","FALSE","FALSE",""
"null","<div style=""font-size:60px;""> </div>","null","html-keyboard-response","180","696255","0.0-7.0-2.19","","","fixation_2","","","","","",""
"null","img_2.bmp","null","image-keyboard-response","181","697257","0.0-7.0-3.19","","","img_on","","","","","",""
"null","<div style=""font-size:60px;""> </div>","null","html-keyboard-response","182","697559","0.0-7.0-4.19","","","fixation_3","","","","","",""
"null","","null","html-keyboard-response","183","697565","0.0-7.0-5.19","","","test","rightarrow","1","1","FALSE","FALSE",""
"null","<div style=""font-size:60px;""> </div>","null","html-keyboard-response","184","697867","0.0-7.0-6.19","","","fixation_4","","","","","",""
"339.2999999523163","arrows.png","38","image-keyboard-response","185","698208","0.0-7.0-7.19","","","test","rightarrow","1","1","FALSE","FALSE","false"
"null","<p style=""color: red; font-size:300%;"">incorrect: $0</p>","null","html-keyboard-response","186","699460","0.0-7.0-8.19","","","","","","","","",""
"null","<div style=""font-size:60px;""> </div>","null","html-keyboard-response","187","700761","0.0-7.0-0.20","","","fixation_1","","","","","",""
"null","","null","image-keyboard-response","188","700769","0.0-7.0-1.20","","","test","downarrow","0","1","FALSE","FALSE",""
"null","<div style=""font-size:60px;""> </div>","null","html-keyboard-response","189","701071","0.0-7.0-2.20","","","fixation_2","","","","","",""
"null","img_3.bmp","null","image-keyboard-response","190","702073","0.0-7.0-3.20","","","img_on","","","","","",""
"null","<div style=""font-size:60px;""> </div>","null","html-keyboard-response","191","702375","0.0-7.0-4.20","","","fixation_3","","","","","",""
"null","","null","html-keyboard-response","192","702380","0.0-7.0-5.20","","","test","downarrow","0","1","FALSE","FALSE",""
"null","<div style=""font-size:60px;""> </div>","null","html-keyboard-response","193","702681","0.0-7.0-6.20","","","fixation_4","","","","","",""
"477.2999999523163","arrows.png","40","image-keyboard-response","194","703160","0.0-7.0-7.20","","","test","downarrow","0","1","FALSE","FALSE","true"
"null","<p style=""color: green; font-size:300%;"">correct: $2.50</p>","null","html-keyboard-response","195","704412","0.0-7.0-8.20","","","","","","","","",""
"null","<div style=""font-size:60px;""> </div>","null","html-keyboard-response","196","705714","0.0-7.0-0.21","","","fixation_1","","","","","",""
"null","","null","image-keyboard-response","197","705720","0.0-7.0-1.21","","","test","uparrow","1","1","FALSE","FALSE",""
"null","<div style=""font-size:60px;""> </div>","null","html-keyboard-response","198","706021","0.0-7.0-2.21","","","fixation_2","","","","","",""
"null","img_1.bmp","null","image-keyboard-response","199","707023","0.0-7.0-3.21","","","img_on","","","","","",""
"null","<div style=""font-size:60px;""> </div>","null","html-keyboard-response","200","707324","0.0-7.0-4.21","","","fixation_3","","","","","",""
"null","","null","html-keyboard-response","201","707331","0.0-7.0-5.21","","","test","uparrow","1","1","FALSE","FALSE",""
"null","<div style=""font-size:60px;""> </div>","null","html-keyboard-response","202","707632","0.0-7.0-6.21","","","fixation_4","","","","","",""
"392.5","arrows.png","38","image-keyboard-response","203","708026","0.0-7.0-7.21","","","test","uparrow","1","1","FALSE","FALSE","true"
"null","<p style=""color: green; font-size:300%;"">correct: $7.50</p>","null","html-keyboard-response","204","709284","0.0-7.0-8.21","","","","","","","","",""
"null","<div style=""font-size:60px;""> </div>","null","html-keyboard-response","205","709835","0.0-7.0-0.22","","","fixation_1","","","","","",""
"null","","null","image-keyboard-response","206","709840","0.0-7.0-1.22","","","test","rightarrow","1","1","FALSE","FALSE",""
"null","<div style=""font-size:60px;""> </div>","null","html-keyboard-response","207","710141","0.0-7.0-2.22","","","fixation_2","","","","","",""
"null","img_2.bmp","null","image-keyboard-response","208","711143","0.0-7.0-3.22","","","img_on","","","","","",""
"null","<div style=""font-size:60px;""> </div>","null","html-keyboard-response","209","711444","0.0-7.0-4.22","","","fixation_3","","","","","",""
"null","","null","html-keyboard-response","210","711450","0.0-7.0-5.22","","","test","rightarrow","1","1","FALSE","FALSE",""
"null","<div style=""font-size:60px;""> </div>","null","html-keyboard-response","211","711752","0.0-7.0-6.22","","","fixation_4","","","","","",""
"160.59999990463257","arrows.png","39","image-keyboard-response","212","711914","0.0-7.0-7.22","","","test","rightarrow","1","1","FALSE","FALSE","true"
"null","<p style=""color: green; font-size:300%;"">correct: $7.50</p>","null","html-keyboard-response","213","713167","0.0-7.0-8.22","","","","","","","","",""
"null","<div style=""font-size:60px;""> </div>","null","html-keyboard-response","214","714219","0.0-7.0-0.23","","","fixation_1","","","","","",""
"null","","null","image-keyboard-response","215","714227","0.0-7.0-1.23","","","test","leftarrow","0","1","FALSE","FALSE",""
"null","<div style=""font-size:60px;""> </div>","null","html-keyboard-response","216","714528","0.0-7.0-2.23","","","fixation_2","","","","","",""
"null","img_4.bmp","null","image-keyboard-response","217","715531","0.0-7.0-3.23","","","img_on","","","","","",""
"null","<div style=""font-size:60px;""> </div>","null","html-keyboard-response","218","715833","0.0-7.0-4.23","","","fixation_3","","","","","",""
"null","","null","html-keyboard-response","219","715839","0.0-7.0-5.23","","","test","leftarrow","0","1","FALSE","FALSE",""
"null","<div style=""font-size:60px;""> </div>","null","html-keyboard-response","220","716140","0.0-7.0-6.23","","","fixation_4","","","","","",""
"355.5","arrows.png","37","image-keyboard-response","221","716497","0.0-7.0-7.23","","","test","leftarrow","0","1","FALSE","FALSE","true"
"null","<p style=""color: green; font-size:300%;"">correct: $2.50</p>","null","html-keyboard-response","222","717750","0.0-7.0-8.23","","","","","","","","",""
"null","<div style=""font-size:60px;""> </div>","null","html-keyboard-response","223","719302","0.0-7.0-0.24","","","fixation_1","","","","","",""
"null","","null","image-keyboard-response","224","719310","0.0-7.0-1.24","","","test","leftarrow","1","2","FALSE","FALSE",""
"null","<div style=""font-size:60px;""> </div>","null","html-keyboard-response","225","719612","0.0-7.0-2.24","","","fixation_2","","","","","",""
"null","img_7.bmp","null","image-keyboard-response","226","720615","0.0-7.0-3.24","","","img_on","","","","","",""
"null","<div style=""font-size:60px;""> </div>","null","html-keyboard-response","227","720916","0.0-7.0-4.24","","","fixation_3","","","","","",""
"null","","null","html-keyboard-response","228","720921","0.0-7.0-5.24","","","test","leftarrow","1","2","FALSE","FALSE",""
"null","<div style=""font-size:60px;""> </div>","null","html-keyboard-response","229","721222","0.0-7.0-6.24","","","fixation_4","","","","","",""
"545.5","arrows.png","40","image-keyboard-response","230","721768","0.0-7.0-7.24","","","test","leftarrow","1","2","FALSE","FALSE","false"
"null","<p style=""color: red; font-size:300%;"">incorrect: $0</p>","null","html-keyboard-response","231","723020","0.0-7.0-8.24","","","","","","","","",""
"null","<div style=""font-size:60px;""> </div>","null","html-keyboard-response","232","723572","0.0-7.0-0.25","","","fixation_1","","","","","",""
"null","","null","image-keyboard-response","233","723578","0.0-7.0-1.25","","","test","downarrow","1","2","FALSE","FALSE",""
"null","<div style=""font-size:60px;""> </div>","null","html-keyboard-response","234","723879","0.0-7.0-2.25","","","fixation_2","","","","","",""
"null","img_6.bmp","null","image-keyboard-response","235","724881","0.0-7.0-3.25","","","img_on","","","","","",""
"null","<div style=""font-size:60px;""> </div>","null","html-keyboard-response","236","725182","0.0-7.0-4.25","","","fixation_3","","","","","",""
"null","","null","html-keyboard-response","237","725188","0.0-7.0-5.25","","","test","downarrow","1","2","FALSE","FALSE",""
"null","<div style=""font-size:60px;""> </div>","null","html-keyboard-response","238","725492","0.0-7.0-6.25","","","fixation_4","","","","","",""
"330.7999999523163","arrows.png","37","image-keyboard-response","239","725825","0.0-7.0-7.25","","","test","downarrow","1","2","FALSE","FALSE","false"
"null","<p style=""color: red; font-size:300%;"">incorrect: $0</p>","null","html-keyboard-response","240","727077","0.0-7.0-8.25","","","","","","","","",""
"null","<div style=""font-size:60px;""> </div>","null","html-keyboard-response","241","728379","0.0-7.0-0.26","","","fixation_1","","","","","",""
"null","","null","image-keyboard-response","242","728387","0.0-7.0-1.26","","","test","uparrow","0","2","FALSE","FALSE",""
"null","<div style=""font-size:60px;""> </div>","null","html-keyboard-response","243","728688","0.0-7.0-2.26","","","fixation_2","","","","","",""
"null","img_8.bmp","null","image-keyboard-response","244","729690","0.0-7.0-3.26","","","img_on","","","","","",""
"null","<div style=""font-size:60px;""> </div>","null","html-keyboard-response","245","729991","0.0-7.0-4.26","","","fixation_3","","","","","",""
"null","","null","html-keyboard-response","246","729997","0.0-7.0-5.26","","","test","uparrow","0","2","FALSE","FALSE",""
"null","<div style=""font-size:60px;""> </div>","null","html-keyboard-response","247","730299","0.0-7.0-6.26","","","fixation_4","","","","","",""
"773","arrows.png","38","image-keyboard-response","248","731073","0.0-7.0-7.26","","","test","uparrow","0","2","FALSE","FALSE","true"
"null","<p style=""color: green; font-size:300%;"">correct: $2.50</p>","null","html-keyboard-response","249","732326","0.0-7.0-8.26","","","","","","","","",""
"null","<div style=""font-size:60px;""> </div>","null","html-keyboard-response","250","733629","0.0-7.0-0.27","","","fixation_1","","","","","",""
"null","","null","image-keyboard-response","251","733634","0.0-7.0-1.27","","","test","rightarrow","0","2","FALSE","FALSE",""
"null","<div style=""font-size:60px;""> </div>","null","html-keyboard-response","252","733935","0.0-7.0-2.27","","","fixation_2","","","","","",""
"null","img_5.bmp","null","image-keyboard-response","253","734937","0.0-7.0-3.27","","","img_on","","","","","",""
"null","<div style=""font-size:60px;""> </div>","null","html-keyboard-response","254","735239","0.0-7.0-4.27","","","fixation_3","","","","","",""
"null","","null","html-keyboard-response","255","735244","0.0-7.0-5.27","","","test","rightarrow","0","2","FALSE","FALSE",""
"null","<div style=""font-size:60px;""> </div>","null","html-keyboard-response","256","735545","0.0-7.0-6.27","","","fixation_4","","","","","",""
"438.19999980926514","arrows.png","39","image-keyboard-response","257","735986","0.0-7.0-7.27","","","test","rightarrow","0","2","FALSE","FALSE","true"
"null","<p style=""color: green; font-size:300%;"">correct: $2.50</p>","null","html-keyboard-response","258","737243","0.0-7.0-8.27","","","","","","","","",""
"null","<div style=""font-size:60px;""> </div>","null","html-keyboard-response","259","738551","0.0-7.0-0.28","","","fixation_1","","","","","",""
"null","","null","image-keyboard-response","260","738558","0.0-7.0-1.28","","","test","rightarrow","0","2","FALSE","FALSE",""
"null","<div style=""font-size:60px;""> </div>","null","html-keyboard-response","261","738860","0.0-7.0-2.28","","","fixation_2","","","","","",""
"null","img_5.bmp","null","image-keyboard-response","262","739862","0.0-7.0-3.28","","","img_on","","","","","",""
"null","<div style=""font-size:60px;""> </div>","null","html-keyboard-response","263","740165","0.0-7.0-4.28","","","fixation_3","","","","","",""
"null","","null","html-keyboard-response","264","740171","0.0-7.0-5.28","","","test","rightarrow","0","2","FALSE","FALSE",""
"null","<div style=""font-size:60px;""> </div>","null","html-keyboard-response","265","740471","0.0-7.0-6.28","","","fixation_4","","","","","",""
"270.69999980926514","arrows.png","39","image-keyboard-response","266","740744","0.0-7.0-7.28","","","test","rightarrow","0","2","FALSE","FALSE","true"
"null","<p style=""color: green; font-size:300%;"">correct: $2.50</p>","null","html-keyboard-response","267","741996","0.0-7.0-8.28","","","","","","","","",""
"null","<div style=""font-size:60px;""> </div>","null","html-keyboard-response","268","743297","0.0-7.0-0.29","","","fixation_1","","","","","",""
"null","","null","image-keyboard-response","269","743305","0.0-7.0-1.29","","","test","downarrow","1","2","FALSE","FALSE",""
"null","<div style=""font-size:60px;""> </div>","null","html-keyboard-response","270","743606","0.0-7.0-2.29","","","fixation_2","","","","","",""
"null","img_6.bmp","null","image-keyboard-response","271","744609","0.0-7.0-3.29","","","img_on","","","","","",""
"null","<div style=""font-size:60px;""> </div>","null","html-keyboard-response","272","744910","0.0-7.0-4.29","","","fixation_3","","","","","",""
"null","","null","html-keyboard-response","273","744915","0.0-7.0-5.29","","","test","downarrow","1","2","FALSE","FALSE",""
"null","<div style=""font-size:60px;""> </div>","null","html-keyboard-response","274","745217","0.0-7.0-6.29","","","fixation_4","","","","","",""
"919.0999999046326","arrows.png","40","image-keyboard-response","275","746138","0.0-7.0-7.29","","","test","downarrow","1","2","FALSE","FALSE","true"
"null","<p style=""color: green; font-size:300%;"">correct: $7.50</p>","null","html-keyboard-response","276","747390","0.0-7.0-8.29","","","","","","","","",""
"null","<div style=""font-size:60px;""> </div>","null","html-keyboard-response","277","748193","0.0-7.0-0.30","","","fixation_1","","","","","",""
"null","","null","image-keyboard-response","278","748199","0.0-7.0-1.30","","","test","leftarrow","1","2","FALSE","FALSE",""
"null","<div style=""font-size:60px;""> </div>","null","html-keyboard-response","279","748501","0.0-7.0-2.30","","","fixation_2","","","","","",""
"null","img_7.bmp","null","image-keyboard-response","280","749502","0.0-7.0-3.30","","","img_on","","","","","",""
"null","<div style=""font-size:60px;""> </div>","null","html-keyboard-response","281","749804","0.0-7.0-4.30","","","fixation_3","","","","","",""
"null","","null","html-keyboard-response","282","749809","0.0-7.0-5.30","","","test","leftarrow","1","2","FALSE","FALSE",""
"null","<div style=""font-size:60px;""> </div>","null","html-keyboard-response","283","750110","0.0-7.0-6.30","","","fixation_4","","","","","",""
"424.7999999523163","arrows.png","37","image-keyboard-response","284","750538","0.0-7.0-7.30","","","test","leftarrow","1","2","FALSE","FALSE","true"
"null","<p style=""color: green; font-size:300%;"">correct: $7.50</p>","null","html-keyboard-response","285","751790","0.0-7.0-8.30","","","","","","","","",""
"null","<div style=""font-size:60px;""> </div>","null","html-keyboard-response","286","753093","0.0-7.0-0.31","","","fixation_1","","","","","",""
"null","","null","image-keyboard-response","287","753100","0.0-7.0-1.31","","","test","uparrow","0","2","FALSE","FALSE",""
"null","<div style=""font-size:60px;""> </div>","null","html-keyboard-response","288","753402","0.0-7.0-2.31","","","fixation_2","","","","","",""
"null","img_8.bmp","null","image-keyboard-response","289","754404","0.0-7.0-3.31","","","img_on","","","","","",""
"null","<div style=""font-size:60px;""> </div>","null","html-keyboard-response","290","754705","0.0-7.0-4.31","","","fixation_3","","","","","",""
"null","","null","html-keyboard-response","291","754711","0.0-7.0-5.31","","","test","uparrow","0","2","FALSE","FALSE",""
"null","<div style=""font-size:60px;""> </div>","null","html-keyboard-response","292","755011","0.0-7.0-6.31","","","fixation_4","","","","","",""
"363.2999999523163","arrows.png","38","image-keyboard-response","293","755377","0.0-7.0-7.31","","","test","uparrow","0","2","FALSE","FALSE","true"
"null","<p style=""color: green; font-size:300%;"">correct: $2.50</p>","null","html-keyboard-response","294","756630","0.0-7.0-8.31","","","","","","","","",""
"null","<div style=""font-size:60px;""> </div>","null","html-keyboard-response","295","758182","0.0-7.0-0.32","","","fixation_1","","","","","",""
"null","","null","image-keyboard-response","296","758188","0.0-7.0-1.32","","","test","uparrow","0","2","FALSE","FALSE",""
"null","<div style=""font-size:60px;""> </div>","null","html-keyboard-response","297","758490","0.0-7.0-2.32","","","fixation_2","","","","","",""
"null","img_8.bmp","null","image-keyboard-response","298","759491","0.0-7.0-3.32","","","img_on","","","","","",""
"null","<div style=""font-size:60px;""> </div>","null","html-keyboard-response","299","759792","0.0-7.0-4.32","","","fixation_3","","","","","",""
"null","","null","html-keyboard-response","300","759799","0.0-7.0-5.32","","","test","uparrow","0","2","FALSE","FALSE",""
"null","<div style=""font-size:60px;""> </div>","null","html-keyboard-response","301","760100","0.0-7.0-6.32","","","fixation_4","","","","","",""
"283.7999999523163","arrows.png","38","image-keyboard-response","302","760386","0.0-7.0-7.32","","","test","uparrow","0","2","FALSE","FALSE","true"
"null","<p style=""color: green; font-size:300%;"">correct: $2.50</p>","null","html-keyboard-response","303","761638","0.0-7.0-8.32","","","","","","","","",""
"null","<div style=""font-size:60px;""> </div>","null","html-keyboard-response","304","762441","0.0-7.0-0.33","","","fixation_1","","","","","",""
"null","","null","image-keyboard-response","305","762447","0.0-7.0-1.33","","","test","rightarrow","0","2","FALSE","FALSE",""
"null","<div style=""font-size:60px;""> </div>","null","html-keyboard-response","306","762748","0.0-7.0-2.33","","","fixation_2","","","","","",""
"null","img_5.bmp","null","image-keyboard-response","307","763751","0.0-7.0-3.33","","","img_on","","","","","",""
"null","<div style=""font-size:60px;""> </div>","null","html-keyboard-response","308","764054","0.0-7.0-4.33","","","fixation_3","","","","","",""
"null","","null","html-keyboard-response","309","764059","0.0-7.0-5.33","","","test","rightarrow","0","2","FALSE","FALSE",""
"null","<div style=""font-size:60px;""> </div>","null","html-keyboard-response","310","764361","0.0-7.0-6.33","","","fixation_4","","","","","",""
"271.09999990463257","arrows.png","39","image-keyboard-response","311","764633","0.0-7.0-7.33","","","test","rightarrow","0","2","FALSE","FALSE","true"
"null","<p style=""color: green; font-size:300%;"">correct: $2.50</p>","null","html-keyboard-response","312","765886","0.0-7.0-8.33","","","","","","","","",""
"null","<div style=""font-size:60px;""> </div>","null","html-keyboard-response","313","766688","0.0-7.0-0.34","","","fixation_1","","","","","",""
"null","","null","image-keyboard-response","314","766694","0.0-7.0-1.34","","","test","downarrow","1","2","FALSE","FALSE",""
"null","<div style=""font-size:60px;""> </div>","null","html-keyboard-response","315","766996","0.0-7.0-2.34","","","fixation_2","","","","","",""
"null","img_6.bmp","null","image-keyboard-response","316","767997","0.0-7.0-3.34","","","img_on","","","","","",""
"null","<div style=""font-size:60px;""> </div>","null","html-keyboard-response","317","768298","0.0-7.0-4.34","","","fixation_3","","","","","",""
"null","","null","html-keyboard-response","318","768304","0.0-7.0-5.34","","","test","downarrow","1","2","FALSE","FALSE",""
"null","<div style=""font-size:60px;""> </div>","null","html-keyboard-response","319","768605","0.0-7.0-6.34","","","fixation_4","","","","","",""
"490.59999990463257","arrows.png","40","image-keyboard-response","320","769097","0.0-7.0-7.34","","","test","downarrow","1","2","FALSE","FALSE","true"
"null","<p style=""color: green; font-size:300%;"">correct: $7.50</p>","null","html-keyboard-response","321","770349","0.0-7.0-8.34","","","","","","","","",""
"null","<div style=""font-size:60px;""> </div>","null","html-keyboard-response","322","771902","0.0-7.0-0.35","","","fixation_1","","","","","",""
"null","","null","image-keyboard-response","323","771908","0.0-7.0-1.35","","","test","leftarrow","1","2","FALSE","FALSE",""
"null","<div style=""font-size:60px;""> </div>","null","html-keyboard-response","324","772210","0.0-7.0-2.35","","","fixation_2","","","","","",""
"null","img_7.bmp","null","image-keyboard-response","325","773212","0.0-7.0-3.35","","","img_on","","","","","",""
"null","<div style=""font-size:60px;""> </div>","null","html-keyboard-response","326","773513","0.0-7.0-4.35","","","fixation_3","","","","","",""
"null","","null","html-keyboard-response","327","773519","0.0-7.0-5.35","","","test","leftarrow","1","2","FALSE","FALSE",""
"null","<div style=""font-size:60px;""> </div>","null","html-keyboard-response","328","773820","0.0-7.0-6.35","","","fixation_4","","","","","",""
"99.09999990463257","arrows.png","37","image-keyboard-response","329","773921","0.0-7.0-7.35","","","test","leftarrow","1","2","FALSE","FALSE","true"
"null","<p style=""color: green; font-size:300%;"">correct: $7.50</p>","null","html-keyboard-response","330","775174","0.0-7.0-8.35","","","","","","","","",""
"null","<div style=""font-size:60px;""> </div>","null","html-keyboard-response","331","776476","0.0-7.0-0.36","","","fixation_1","","","","","",""
"null","","null","image-keyboard-response","332","776483","0.0-7.0-1.36","","","test","rightarrow","0","2","FALSE","FALSE",""
"null","<div style=""font-size:60px;""> </div>","null","html-keyboard-response","333","776786","0.0-7.0-2.36","","","fixation_2","","","","","",""
"null","img_5.bmp","null","image-keyboard-response","334","777787","0.0-7.0-3.36","","","img_on","","","","","",""
"null","<div style=""font-size:60px;""> </div>","null","html-keyboard-response","335","778088","0.0-7.0-4.36","","","fixation_3","","","","","",""
"null","","null","html-keyboard-response","336","778094","0.0-7.0-5.36","","","test","rightarrow","0","2","FALSE","FALSE",""
"null","<div style=""font-size:60px;""> </div>","null","html-keyboard-response","337","778395","0.0-7.0-6.36","","","fixation_4","","","","","",""
"163.89999985694885","arrows.png","38","image-keyboard-response","338","778560","0.0-7.0-7.36","","","test","rightarrow","0","2","FALSE","FALSE","false"
"null","<p style=""color: red; font-size:300%;"">incorrect: $0</p>","null","html-keyboard-response","339","779812","0.0-7.0-8.36","","","","","","","","",""
"null","<div style=""font-size:60px;""> </div>","null","html-keyboard-response","340","780615","0.0-7.0-0.37","","","fixation_1","","","","","",""
"null","","null","image-keyboard-response","341","780621","0.0-7.0-1.37","","","test","uparrow","0","2","FALSE","FALSE",""
"null","<div style=""font-size:60px;""> </div>","null","html-keyboard-response","342","780923","0.0-7.0-2.37","","","fixation_2","","","","","",""
"null","img_8.bmp","null","image-keyboard-response","343","781924","0.0-7.0-3.37","","","img_on","","","","","",""
"null","<div style=""font-size:60px;""> </div>","null","html-keyboard-response","344","782226","0.0-7.0-4.37","","","fixation_3","","","","","",""
"null","","null","html-keyboard-response","345","782232","0.0-7.0-5.37","","","test","uparrow","0","2","FALSE","FALSE",""
"null","<div style=""font-size:60px;""> </div>","null","html-keyboard-response","346","782533","0.0-7.0-6.37","","","fixation_4","","","","","",""
"804","arrows.png","38","image-keyboard-response","347","783338","0.0-7.0-7.37","","","test","uparrow","0","2","FALSE","FALSE","true"
"null","<p style=""color: green; font-size:300%;"">correct: $2.50</p>","null","html-keyboard-response","348","784590","0.0-7.0-8.37","","","","","","","","",""
"null","<div style=""font-size:60px;""> </div>","null","html-keyboard-response","349","785143","0.0-7.0-0.38","","","fixation_1","","","","","",""
"null","","null","image-keyboard-response","350","785148","0.0-7.0-1.38","","","test","leftarrow","1","2","FALSE","FALSE",""
"null","<div style=""font-size:60px;""> </div>","null","html-keyboard-response","351","785449","0.0-7.0-2.38","","","fixation_2","","","","","",""
"null","img_7.bmp","null","image-keyboard-response","352","786451","0.0-7.0-3.38","","","img_on","","","","","",""
"null","<div style=""font-size:60px;""> </div>","null","html-keyboard-response","353","786753","0.0-7.0-4.38","","","fixation_3","","","","","",""
"null","","null","html-keyboard-response","354","786758","0.0-7.0-5.38","","","test","leftarrow","1","2","FALSE","FALSE",""
"null","<div style=""font-size:60px;""> </div>","null","html-keyboard-response","355","787060","0.0-7.0-6.38","","","fixation_4","","","","","",""
"259.2999999523163","arrows.png","37","image-keyboard-response","356","787320","0.0-7.0-7.38","","","test","leftarrow","1","2","FALSE","FALSE","true"
"null","<p style=""color: green; font-size:300%;"">correct: $7.50</p>","null","html-keyboard-response","357","788573","0.0-7.0-8.38","","","","","","","","",""
"null","<div style=""font-size:60px;""> </div>","null","html-keyboard-response","358","789625","0.0-7.0-0.39","","","fixation_1","","","","","",""
"null","","null","image-keyboard-response","359","789630","0.0-7.0-1.39","","","test","downarrow","1","2","FALSE","FALSE",""
"null","<div style=""font-size:60px;""> </div>","null","html-keyboard-response","360","789932","0.0-7.0-2.39","","","fixation_2","","","","","",""
"null","img_6.bmp","null","image-keyboard-response","361","790933","0.0-7.0-3.39","","","img_on","","","","","",""
"null","<div style=""font-size:60px;""> </div>","null","html-keyboard-response","362","791234","0.0-7.0-4.39","","","fixation_3","","","","","",""
"null","","null","html-keyboard-response","363","791241","0.0-7.0-5.39","","","test","downarrow","1","2","FALSE","FALSE",""
"null","<div style=""font-size:60px;""> </div>","null","html-keyboard-response","364","791546","0.0-7.0-6.39","","","fixation_4","","","","","",""
"326","arrows.png","40","image-keyboard-response","365","791873","0.0-7.0-7.39","","","test","downarrow","1","2","FALSE","FALSE","true"
"null","<p style=""color: green; font-size:300%;"">correct: $7.50</p>","null","html-keyboard-response","366","793126","0.0-7.0-8.39","","","","","","","","",""
"null","<div style=""font-size:60px;""> </div>","null","html-keyboard-response","367","794429","0.0-7.0-0.40","","","fixation_1","","","","","",""
"null","","null","image-keyboard-response","368","794436","0.0-7.0-1.40","","","test","uparrow","0","2","FALSE","FALSE",""
"null","<div style=""font-size:60px;""> </div>","null","html-keyboard-response","369","794738","0.0-7.0-2.40","","","fixation_2","","","","","",""
"null","img_8.bmp","null","image-keyboard-response","370","795739","0.0-7.0-3.40","","","img_on","","","","","",""
"null","<div style=""font-size:60px;""> </div>","null","html-keyboard-response","371","796041","0.0-7.0-4.40","","","fixation_3","","","","","",""
"null","","null","html-keyboard-response","372","796047","0.0-7.0-5.40","","","test","uparrow","0","2","FALSE","FALSE",""
"null","<div style=""font-size:60px;""> </div>","null","html-keyboard-response","373","796348","0.0-7.0-6.40","","","fixation_4","","","","","",""
"932.4000000953674","arrows.png","38","image-keyboard-response","374","797282","0.0-7.0-7.40","","","test","uparrow","0","2","FALSE","FALSE","true"
"null","<p style=""color: green; font-size:300%;"">correct: $2.50</p>","null","html-keyboard-response","375","798534","0.0-7.0-8.40","","","","","","","","",""
"null","<div style=""font-size:60px;""> </div>","null","html-keyboard-response","376","800087","0.0-7.0-0.41","","","fixation_1","","","","","",""
"null","","null","image-keyboard-response","377","800092","0.0-7.0-1.41","","","test","downarrow","1","2","FALSE","FALSE",""
"null","<div style=""font-size:60px;""> </div>","null","html-keyboard-response","378","800394","0.0-7.0-2.41","","","fixation_2","","","","","",""
"null","img_6.bmp","null","image-keyboard-response","379","801396","0.0-7.0-3.41","","","img_on","","","","","",""
"null","<div style=""font-size:60px;""> </div>","null","html-keyboard-response","380","801697","0.0-7.0-4.41","","","fixation_3","","","","","",""
"null","","null","html-keyboard-response","381","801703","0.0-7.0-5.41","","","test","downarrow","1","2","FALSE","FALSE",""
"null","<div style=""font-size:60px;""> </div>","null","html-keyboard-response","382","802004","0.0-7.0-6.41","","","fixation_4","","","","","",""
"611.4000000953674","arrows.png","40","image-keyboard-response","383","802617","0.0-7.0-7.41","","","test","downarrow","1","2","FALSE","FALSE","true"
"null","<p style=""color: green; font-size:300%;"">correct: $7.50</p>","null","html-keyboard-response","384","803871","0.0-7.0-8.41","","","","","","","","",""
"null","<div style=""font-size:60px;""> </div>","null","html-keyboard-response","385","805422","0.0-7.0-0.42","","","fixation_1","","","","","",""
"null","","null","image-keyboard-response","386","805428","0.0-7.0-1.42","","","test","rightarrow","0","2","FALSE","FALSE",""
"null","<div style=""font-size:60px;""> </div>","null","html-keyboard-response","387","805729","0.0-7.0-2.42","","","fixation_2","","","","","",""
"null","img_5.bmp","null","image-keyboard-response","388","806731","0.0-7.0-3.42","","","img_on","","","","","",""
"null","<div style=""font-size:60px;""> </div>","null","html-keyboard-response","389","807032","0.0-7.0-4.42","","","fixation_3","","","","","",""
"null","","null","html-keyboard-response","390","807038","0.0-7.0-5.42","","","test","rightarrow","0","2","FALSE","FALSE",""
"null","<div style=""font-size:60px;""> </div>","null","html-keyboard-response","391","807341","0.0-7.0-6.42","","","fixation_4","","","","","",""
"235.09999990463257","arrows.png","39","image-keyboard-response","392","807576","0.0-7.0-7.42","","","test","rightarrow","0","2","FALSE","FALSE","true"
"null","<p style=""color: green; font-size:300%;"">correct: $2.50</p>","null","html-keyboard-response","393","808828","0.0-7.0-8.42","","","","","","","","",""
"null","<div style=""font-size:60px;""> </div>","null","html-keyboard-response","394","810130","0.0-7.0-0.43","","","fixation_1","","","","","",""
"null","","null","image-keyboard-response","395","810135","0.0-7.0-1.43","","","test","leftarrow","1","2","FALSE","FALSE",""
"null","<div style=""font-size:60px;""> </div>","null","html-keyboard-response","396","810437","0.0-7.0-2.43","","","fixation_2","","","","","",""
"null","img_7.bmp","null","image-keyboard-response","397","811440","0.0-7.0-3.43","","","img_on","","","","","",""
"null","<div style=""font-size:60px;""> </div>","null","html-keyboard-response","398","811742","0.0-7.0-4.43","","","fixation_3","","","","","",""
"null","","null","html-keyboard-response","399","811748","0.0-7.0-5.43","","","test","leftarrow","1","2","FALSE","FALSE",""
"null","<div style=""font-size:60px;""> </div>","null","html-keyboard-response","400","812049","0.0-7.0-6.43","","","fixation_4","","","","","",""
"292.80000019073486","arrows.png","37","image-keyboard-response","401","812344","0.0-7.0-7.43","","","test","leftarrow","1","2","FALSE","FALSE","true"
"null","<p style=""color: green; font-size:300%;"">correct: $7.50</p>","null","html-keyboard-response","402","813596","0.0-7.0-8.43","","","","","","","","",""
"null","<div style=""font-size:60px;""> </div>","null","html-keyboard-response","403","814148","0.0-7.0-0.44","","","fixation_1","","","","","",""
"null","","null","image-keyboard-response","404","814153","0.0-7.0-1.44","","","test","rightarrow","0","2","FALSE","FALSE",""
"null","<div style=""font-size:60px;""> </div>","null","html-keyboard-response","405","814454","0.0-7.0-2.44","","","fixation_2","","","","","",""
"null","img_5.bmp","null","image-keyboard-response","406","815457","0.0-7.0-3.44","","","img_on","","","","","",""
"null","<div style=""font-size:60px;""> </div>","null","html-keyboard-response","407","815759","0.0-7.0-4.44","","","fixation_3","","","","","",""
"null","","null","html-keyboard-response","408","815765","0.0-7.0-5.44","","","test","rightarrow","0","2","FALSE","FALSE",""
"null","<div style=""font-size:60px;""> </div>","null","html-keyboard-response","409","816066","0.0-7.0-6.44","","","fixation_4","","","","","",""
"476.5","arrows.png","39","image-keyboard-response","410","816543","0.0-7.0-7.44","","","test","rightarrow","0","2","FALSE","FALSE","true"
"null","<p style=""color: green; font-size:300%;"">correct: $2.50</p>","null","html-keyboard-response","411","817796","0.0-7.0-8.44","","","","","","","","",""
"null","<div style=""font-size:60px;""> </div>","null","html-keyboard-response","412","818349","0.0-7.0-0.45","","","fixation_1","","","","","",""
"null","","null","image-keyboard-response","413","818358","0.0-7.0-1.45","","","test","downarrow","1","2","FALSE","FALSE",""
"null","<div style=""font-size:60px;""> </div>","null","html-keyboard-response","414","818660","0.0-7.0-2.45","","","fixation_2","","","","","",""
"null","img_6.bmp","null","image-keyboard-response","415","819662","0.0-7.0-3.45","","","img_on","","","","","",""
"null","<div style=""font-size:60px;""> </div>","null","html-keyboard-response","416","819964","0.0-7.0-4.45","","","fixation_3","","","","","",""
"null","","null","html-keyboard-response","417","819971","0.0-7.0-5.45","","","test","downarrow","1","2","FALSE","FALSE",""
"null","<div style=""font-size:60px;""> </div>","null","html-keyboard-response","418","820273","0.0-7.0-6.45","","","fixation_4","","","","","",""
"317.40000009536743","arrows.png","40","image-keyboard-response","419","820592","0.0-7.0-7.45","","","test","downarrow","1","2","FALSE","FALSE","true"
"null","<p style=""color: green; font-size:300%;"">correct: $7.50</p>","null","html-keyboard-response","420","821845","0.0-7.0-8.45","","","","","","","","",""
"null","<div style=""font-size:60px;""> </div>","null","html-keyboard-response","421","823146","0.0-7.0-0.46","","","fixation_1","","","","","",""
"null","","null","image-keyboard-response","422","823152","0.0-7.0-1.46","","","test","leftarrow","1","2","FALSE","FALSE",""
"null","<div style=""font-size:60px;""> </div>","null","html-keyboard-response","423","823454","0.0-7.0-2.46","","","fixation_2","","","","","",""
"null","img_7.bmp","null","image-keyboard-response","424","824456","0.0-7.0-3.46","","","img_on","","","","","",""
"null","<div style=""font-size:60px;""> </div>","null","html-keyboard-response","425","824757","0.0-7.0-4.46","","","fixation_3","","","","","",""
"null","","null","html-keyboard-response","426","824763","0.0-7.0-5.46","","","test","leftarrow","1","2","FALSE","FALSE",""
"null","<div style=""font-size:60px;""> </div>","null","html-keyboard-response","427","825064","0.0-7.0-6.46","","","fixation_4","","","","","",""
"454","arrows.png","38","image-keyboard-response","428","825520","0.0-7.0-7.46","","","test","leftarrow","1","2","FALSE","FALSE","false"
"null","<p style=""color: red; font-size:300%;"">incorrect: $0</p>","null","html-keyboard-response","429","826773","0.0-7.0-8.46","","","","","","","","",""
"null","<div style=""font-size:60px;""> </div>","null","html-keyboard-response","430","827329","0.0-7.0-0.47","","","fixation_1","","","","","",""
"null","","null","image-keyboard-response","431","827335","0.0-7.0-1.47","","","test","uparrow","0","2","FALSE","FALSE",""
"null","<div style=""font-size:60px;""> </div>","null","html-keyboard-response","432","827637","0.0-7.0-2.47","","","fixation_2","","","","","",""
"null","img_8.bmp","null","image-keyboard-response","433","828638","0.0-7.0-3.47","","","img_on","","","","","",""
"null","<div style=""font-size:60px;""> </div>","null","html-keyboard-response","434","828940","0.0-7.0-4.47","","","fixation_3","","","","","",""
"null","","null","html-keyboard-response","435","828945","0.0-7.0-5.47","","","test","uparrow","0","2","FALSE","FALSE",""
"null","<div style=""font-size:60px;""> </div>","null","html-keyboard-response","436","829246","0.0-7.0-6.47","","","fixation_4","","","","","",""
"864.5","arrows.png","38","image-keyboard-response","437","830111","0.0-7.0-7.47","","","test","uparrow","0","2","FALSE","FALSE","true"
"null","<p style=""color: green; font-size:300%;"">correct: $2.50</p>","null","html-keyboard-response","438","831364","0.0-7.0-8.47","","","","","","","","",""
"null","<div style=""font-size:60px;""> </div>","null","html-keyboard-response","439","832666","0.0-7.0-0.48","","","fixation_1","","","","","",""
"null","","null","image-keyboard-response","440","832672","0.0-7.0-1.48","","","test","downarrow","0","1","FALSE","FALSE",""
"null","<div style=""font-size:60px;""> </div>","null","html-keyboard-response","441","832973","0.0-7.0-2.48","","","fixation_2","","","","","",""
"null","img_3.bmp","null","image-keyboard-response","442","833975","0.0-7.0-3.48","","","img_on","","","","","",""
"null","<div style=""font-size:60px;""> </div>","null","html-keyboard-response","443","834277","0.0-7.0-4.48","","","fixation_3","","","","","",""
"null","","null","html-keyboard-response","444","834283","0.0-7.0-5.48","","","test","downarrow","0","1","FALSE","FALSE",""
"null","<div style=""font-size:60px;""> </div>","null","html-keyboard-response","445","834585","0.0-7.0-6.48","","","fixation_4","","","","","",""
"807.2000000476837","arrows.png","40","image-keyboard-response","446","835393","0.0-7.0-7.48","","","test","downarrow","0","1","FALSE","FALSE","true"
"null","<p style=""color: green; font-size:300%;"">correct: $2.50</p>","null","html-keyboard-response","447","836645","0.0-7.0-8.48","","","","","","","","",""
"null","<div style=""font-size:60px;""> </div>","null","html-keyboard-response","448","838196","0.0-7.0-0.49","","","fixation_1","","","","","",""
"null","","null","image-keyboard-response","449","838202","0.0-7.0-1.49","","","test","rightarrow","1","1","FALSE","FALSE",""
"null","<div style=""font-size:60px;""> </div>","null","html-keyboard-response","450","838504","0.0-7.0-2.49","","","fixation_2","","","","","",""
"null","img_2.bmp","null","image-keyboard-response","451","839506","0.0-7.0-3.49","","","img_on","","","","","",""
"null","<div style=""font-size:60px;""> </div>","null","html-keyboard-response","452","839808","0.0-7.0-4.49","","","fixation_3","","","","","",""
"null","","null","html-keyboard-response","453","839813","0.0-7.0-5.49","","","test","rightarrow","1","1","FALSE","FALSE",""
"null","<div style=""font-size:60px;""> </div>","null","html-keyboard-response","454","840119","0.0-7.0-6.49","","","fixation_4","","","","","",""
"303","arrows.png","38","image-keyboard-response","455","840423","0.0-7.0-7.49","","","test","rightarrow","1","1","FALSE","FALSE","false"
"null","<p style=""color: red; font-size:300%;"">incorrect: $0</p>","null","html-keyboard-response","456","841675","0.0-7.0-8.49","","","","","","","","",""
"null","<div style=""font-size:60px;""> </div>","null","html-keyboard-response","457","843228","0.0-7.0-0.50","","","fixation_1","","","","","",""
"null","","null","image-keyboard-response","458","843234","0.0-7.0-1.50","","","test","uparrow","1","1","FALSE","FALSE",""
"null","<div style=""font-size:60px;""> </div>","null","html-keyboard-response","459","843535","0.0-7.0-2.50","","","fixation_2","","","","","",""
"null","img_1.bmp","null","image-keyboard-response","460","844538","0.0-7.0-3.50","","","img_on","","","","","",""
"null","<div style=""font-size:60px;""> </div>","null","html-keyboard-response","461","844839","0.0-7.0-4.50","","","fixation_3","","","","","",""
"null","","null","html-keyboard-response","462","844844","0.0-7.0-5.50","","","test","uparrow","1","1","FALSE","FALSE",""
"null","<div style=""font-size:60px;""> </div>","null","html-keyboard-response","463","845145","0.0-7.0-6.50","","","fixation_4","","","","","",""
"501.40000009536743","arrows.png","38","image-keyboard-response","464","845648","0.0-7.0-7.50","","","test","uparrow","1","1","FALSE","FALSE","true"
"null","<p style=""color: green; font-size:300%;"">correct: $7.50</p>","null","html-keyboard-response","465","846900","0.0-7.0-8.50","","","","","","","","",""
"null","<div style=""font-size:60px;""> </div>","null","html-keyboard-response","466","848202","0.0-7.0-0.51","","","fixation_1","","","","","",""
"null","","null","image-keyboard-response","467","848209","0.0-7.0-1.51","","","test","leftarrow","0","1","FALSE","FALSE",""
"null","<div style=""font-size:60px;""> </div>","null","html-keyboard-response","468","848510","0.0-7.0-2.51","","","fixation_2","","","","","",""
"null","img_4.bmp","null","image-keyboard-response","469","849512","0.0-7.0-3.51","","","img_on","","","","","",""
"null","<div style=""font-size:60px;""> </div>","null","html-keyboard-response","470","849815","0.0-7.0-4.51","","","fixation_3","","","","","",""
"null","","null","html-keyboard-response","471","849820","0.0-7.0-5.51","","","test","leftarrow","0","1","FALSE","FALSE",""
"null","<div style=""font-size:60px;""> </div>","null","html-keyboard-response","472","850122","0.0-7.0-6.51","","","fixation_4","","","","","",""
"324.7999999523163","arrows.png","37","image-keyboard-response","473","850447","0.0-7.0-7.51","","","test","leftarrow","0","1","FALSE","FALSE","true"
"null","<p style=""color: green; font-size:300%;"">correct: $2.50</p>","null","html-keyboard-response","474","851700","0.0-7.0-8.51","","","","","","","","",""
"null","<div style=""font-size:60px;""> </div>","null","html-keyboard-response","475","852753","0.0-7.0-0.52","","","fixation_1","","","","","",""
"null","","null","image-keyboard-response","476","852759","0.0-7.0-1.52","","","test","uparrow","1","1","FALSE","FALSE",""
"null","<div style=""font-size:60px;""> </div>","null","html-keyboard-response","477","853061","0.0-7.0-2.52","","","fixation_2","","","","","",""
"null","img_1.bmp","null","image-keyboard-response","478","854063","0.0-7.0-3.52","","","img_on","","","","","",""
"null","<div style=""font-size:60px;""> </div>","null","html-keyboard-response","479","854365","0.0-7.0-4.52","","","fixation_3","","","","","",""
"null","","null","html-keyboard-response","480","854371","0.0-7.0-5.52","","","test","uparrow","1","1","FALSE","FALSE",""
"null","<div style=""font-size:60px;""> </div>","null","html-keyboard-response","481","854673","0.0-7.0-6.52","","","fixation_4","","","","","",""
"356.2999999523163","arrows.png","38","image-keyboard-response","482","855033","0.0-7.0-7.52","","","test","uparrow","1","1","FALSE","FALSE","true"
"null","<p style=""color: green; font-size:300%;"">correct: $7.50</p>","null","html-keyboard-response","483","856286","0.0-7.0-8.52","","","","","","","","",""
"null","<div style=""font-size:60px;""> </div>","null","html-keyboard-response","484","857089","0.0-7.0-0.53","","","fixation_1","","","","","",""
"null","","null","image-keyboard-response","485","857096","0.0-7.0-1.53","","","test","rightarrow","1","1","FALSE","FALSE",""
"null","<div style=""font-size:60px;""> </div>","null","html-keyboard-response","486","857398","0.0-7.0-2.53","","","fixation_2","","","","","",""
"null","img_2.bmp","null","image-keyboard-response","487","858399","0.0-7.0-3.53","","","img_on","","","","","",""
"null","<div style=""font-size:60px;""> </div>","null","html-keyboard-response","488","858702","0.0-7.0-4.53","","","fixation_3","","","","","",""
"null","","null","html-keyboard-response","489","858707","0.0-7.0-5.53","","","test","rightarrow","1","1","FALSE","FALSE",""
"null","<div style=""font-size:60px;""> </div>","null","html-keyboard-response","490","859009","0.0-7.0-6.53","","","fixation_4","","","","","",""
"325.2999999523163","arrows.png","39","image-keyboard-response","491","859336","0.0-7.0-7.53","","","test","rightarrow","1","1","FALSE","FALSE","true"
"null","<p style=""color: green; font-size:300%;"">correct: $7.50</p>","null","html-keyboard-response","492","860589","0.0-7.0-8.53","","","","","","","","",""
"null","<div style=""font-size:60px;""> </div>","null","html-keyboard-response","493","862141","0.0-7.0-0.54","","","fixation_1","","","","","",""
"null","","null","image-keyboard-response","494","862148","0.0-7.0-1.54","","","test","leftarrow","0","1","FALSE","FALSE",""
"null","<div style=""font-size:60px;""> </div>","null","html-keyboard-response","495","862450","0.0-7.0-2.54","","","fixation_2","","","","","",""
"null","img_4.bmp","null","image-keyboard-response","496","863452","0.0-7.0-3.54","","","img_on","","","","","",""
"null","<div style=""font-size:60px;""> </div>","null","html-keyboard-response","497","863754","0.0-7.0-4.54","","","fixation_3","","","","","",""
"null","","null","html-keyboard-response","498","863760","0.0-7.0-5.54","","","test","leftarrow","0","1","FALSE","FALSE",""
"null","<div style=""font-size:60px;""> </div>","null","html-keyboard-response","499","864061","0.0-7.0-6.54","","","fixation_4","","","","","",""
"283","arrows.png","37","image-keyboard-response","500","864346","0.0-7.0-7.54","","","test","leftarrow","0","1","FALSE","FALSE","true"
"null","<p style=""color: green; font-size:300%;"">correct: $2.50</p>","null","html-keyboard-response","501","865599","0.0-7.0-8.54","","","","","","","","",""
"null","<div style=""font-size:60px;""> </div>","null","html-keyboard-response","502","866652","0.0-7.0-0.55","","","fixation_1","","","","","",""
"null","","null","image-keyboard-response","503","866660","0.0-7.0-1.55","","","test","downarrow","0","1","FALSE","FALSE",""
"null","<div style=""font-size:60px;""> </div>","null","html-keyboard-response","504","866962","0.0-7.0-2.55","","","fixation_2","","","","","",""
"null","img_3.bmp","null","image-keyboard-response","505","867965","0.0-7.0-3.55","","","img_on","","","","","",""
"null","<div style=""font-size:60px;""> </div>","null","html-keyboard-response","506","868266","0.0-7.0-4.55","","","fixation_3","","","","","",""
"null","","null","html-keyboard-response","507","868271","0.0-7.0-5.55","","","test","downarrow","0","1","FALSE","FALSE",""
"null","<div style=""font-size:60px;""> </div>","null","html-keyboard-response","508","868573","0.0-7.0-6.55","","","fixation_4","","","","","",""
"394.7000000476837","arrows.png","40","image-keyboard-response","509","868969","0.0-7.0-7.55","","","test","downarrow","0","1","FALSE","FALSE","true"
"null","<p style=""color: green; font-size:300%;"">correct: $2.50</p>","null","html-keyboard-response","510","870222","0.0-7.0-8.55","","","","","","","","",""
"null","<div style=""font-size:60px;""> </div>","null","html-keyboard-response","511","871773","0.0-7.0-0.56","","","fixation_1","","","","","",""
"null","","null","image-keyboard-response","512","871778","0.0-7.0-1.56","","","test","downarrow","0","1","FALSE","FALSE",""
"null","<div style=""font-size:60px;""> </div>","null","html-keyboard-response","513","872080","0.0-7.0-2.56","","","fixation_2","","","","","",""
"null","img_3.bmp","null","image-keyboard-response","514","873082","0.0-7.0-3.56","","","img_on","","","","","",""
"null","<div style=""font-size:60px;""> </div>","null","html-keyboard-response","515","873384","0.0-7.0-4.56","","","fixation_3","","","","","",""
"null","","null","html-keyboard-response","516","873391","0.0-7.0-5.56","","","test","downarrow","0","1","FALSE","FALSE",""
"null","<div style=""font-size:60px;""> </div>","null","html-keyboard-response","517","873692","0.0-7.0-6.56","","","fixation_4","","","","","",""
"764.8999998569489","arrows.png","39","image-keyboard-response","518","874458","0.0-7.0-7.56","","","test","downarrow","0","1","FALSE","FALSE","false"
"null","<p style=""color: red; font-size:300%;"">incorrect: $0</p>","null","html-keyboard-response","519","875713","0.0-7.0-8.56","","","","","","","","",""
"null","<div style=""font-size:60px;""> </div>","null","html-keyboard-response","520","876265","0.0-7.0-0.57","","","fixation_1","","","","","",""
"null","","null","image-keyboard-response","521","876270","0.0-7.0-1.57","","","test","uparrow","1","1","FALSE","FALSE",""
"null","<div style=""font-size:60px;""> </div>","null","html-keyboard-response","522","876572","0.0-7.0-2.57","","","fixation_2","","","","","",""
"null","img_1.bmp","null","image-keyboard-response","523","877574","0.0-7.0-3.57","","","img_on","","","","","",""
"null","<div style=""font-size:60px;""> </div>","null","html-keyboard-response","524","877875","0.0-7.0-4.57","","","fixation_3","","","","","",""
"null","","null","html-keyboard-response","525","877882","0.0-7.0-5.57","","","test","uparrow","1","1","FALSE","FALSE",""
"null","<div style=""font-size:60px;""> </div>","null","html-keyboard-response","526","878183","0.0-7.0-6.57","","","fixation_4","","","","","",""
"261.5","arrows.png","38","image-keyboard-response","527","878448","0.0-7.0-7.57","","","test","uparrow","1","1","FALSE","FALSE","true"
"null","<p style=""color: green; font-size:300%;"">correct: $7.50</p>","null","html-keyboard-response","528","879700","0.0-7.0-8.57","","","","","","","","",""
"null","<div style=""font-size:60px;""> </div>","null","html-keyboard-response","529","881004","0.0-7.0-0.58","","","fixation_1","","","","","",""
"null","","null","image-keyboard-response","530","881011","0.0-7.0-1.58","","","test","rightarrow","1","1","FALSE","FALSE",""
"null","<div style=""font-size:60px;""> </div>","null","html-keyboard-response","531","881313","0.0-7.0-2.58","","","fixation_2","","","","","",""
"null","img_2.bmp","null","image-keyboard-response","532","882317","0.0-7.0-3.58","","","img_on","","","","","",""
"null","<div style=""font-size:60px;""> </div>","null","html-keyboard-response","533","882618","0.0-7.0-4.58","","","fixation_3","","","","","",""
"null","","null","html-keyboard-response","534","882624","0.0-7.0-5.58","","","test","rightarrow","1","1","FALSE","FALSE",""
"null","<div style=""font-size:60px;""> </div>","null","html-keyboard-response","535","882926","0.0-7.0-6.58","","","fixation_4","","","","","",""
"273.19999980926514","arrows.png","39","image-keyboard-response","536","883200","0.0-7.0-7.58","","","test","rightarrow","1","1","FALSE","FALSE","true"
"null","<p style=""color: green; font-size:300%;"">correct: $7.50</p>","null","html-keyboard-response","537","884453","0.0-7.0-8.58","","","","","","","","",""
"null","<div style=""font-size:60px;""> </div>","null","html-keyboard-response","538","885756","0.0-7.0-0.59","","","fixation_1","","","","","",""
"null","","null","image-keyboard-response","539","885762","0.0-7.0-1.59","","","test","leftarrow","0","1","FALSE","FALSE",""
"null","<div style=""font-size:60px;""> </div>","null","html-keyboard-response","540","886064","0.0-7.0-2.59","","","fixation_2","","","","","",""
"null","img_4.bmp","null","image-keyboard-response","541","887065","0.0-7.0-3.59","","","img_on","","","","","",""
"null","<div style=""font-size:60px;""> </div>","null","html-keyboard-response","542","887366","0.0-7.0-4.59","","","fixation_3","","","","","",""
"null","","null","html-keyboard-response","543","887372","0.0-7.0-5.59","","","test","leftarrow","0","1","FALSE","FALSE",""
"null","<div style=""font-size:60px;""> </div>","null","html-keyboard-response","544","887673","0.0-7.0-6.59","","","fixation_4","","","","","",""
"310.7999999523163","arrows.png","37","image-keyboard-response","545","887985","0.0-7.0-7.59","","","test","leftarrow","0","1","FALSE","FALSE","true"
"null","<p style=""color: green; font-size:300%;"">correct: $2.50</p>","null","html-keyboard-response","546","889237","0.0-7.0-8.59","","","","","","","","",""
"null","<div style=""font-size:60px;""> </div>","null","html-keyboard-response","547","890289","0.0-7.0-0.60","","","fixation_1","","","","","",""
"null","","null","image-keyboard-response","548","890294","0.0-7.0-1.60","","","test","rightarrow","1","1","FALSE","FALSE",""
"null","<div style=""font-size:60px;""> </div>","null","html-keyboard-response","549","890595","0.0-7.0-2.60","","","fixation_2","","","","","",""
"null","img_2.bmp","null","image-keyboard-response","550","891597","0.0-7.0-3.60","","","img_on","","","","","",""
"null","<div style=""font-size:60px;""> </div>","null","html-keyboard-response","551","891899","0.0-7.0-4.60","","","fixation_3","","","","","",""
"null","","null","html-keyboard-response","552","891906","0.0-7.0-5.60","","","test","rightarrow","1","1","FALSE","FALSE",""
"null","<div style=""font-size:60px;""> </div>","null","html-keyboard-response","553","892208","0.0-7.0-6.60","","","fixation_4","","","","","",""
"327.59999990463257","arrows.png","39","image-keyboard-response","554","892536","0.0-7.0-7.60","","","test","rightarrow","1","1","FALSE","FALSE","true"
"null","<p style=""color: green; font-size:300%;"">correct: $7.50</p>","null","html-keyboard-response","555","893789","0.0-7.0-8.60","","","","","","","","",""
"null","<div style=""font-size:60px;""> </div>","null","html-keyboard-response","556","894592","0.0-7.0-0.61","","","fixation_1","","","","","",""
"null","","null","image-keyboard-response","557","894598","0.0-7.0-1.61","","","test","uparrow","1","1","FALSE","FALSE",""
"null","<div style=""font-size:60px;""> </div>","null","html-keyboard-response","558","894900","0.0-7.0-2.61","","","fixation_2","","","","","",""
"null","img_1.bmp","null","image-keyboard-response","559","895902","0.0-7.0-3.61","","","img_on","","","","","",""
"null","<div style=""font-size:60px;""> </div>","null","html-keyboard-response","560","896205","0.0-7.0-4.61","","","fixation_3","","","","","",""
"null","","null","html-keyboard-response","561","896215","0.0-7.0-5.61","","","test","uparrow","1","1","FALSE","FALSE",""
"null","<div style=""font-size:60px;""> </div>","null","html-keyboard-response","562","896516","0.0-7.0-6.61","","","fixation_4","","","","","",""
"331.40000009536743","arrows.png","38","image-keyboard-response","563","896848","0.0-7.0-7.61","","","test","uparrow","1","1","FALSE","FALSE","true"
"null","<p style=""color: green; font-size:300%;"">correct: $7.50</p>","null","html-keyboard-response","564","898109","0.0-7.0-8.61","","","","","","","","",""
"null","<div style=""font-size:60px;""> </div>","null","html-keyboard-response","565","899663","0.0-7.0-0.62","","","fixation_1","","","","","",""
"null","","null","image-keyboard-response","566","899670","0.0-7.0-1.62","","","test","leftarrow","0","1","FALSE","FALSE",""
"null","<div style=""font-size:60px;""> </div>","null","html-keyboard-response","567","899972","0.0-7.0-2.62","","","fixation_2","","","","","",""
"null","img_4.bmp","null","image-keyboard-response","568","900974","0.0-7.0-3.62","","","img_on","","","","","",""
"null","<div style=""font-size:60px;""> </div>","null","html-keyboard-response","569","901276","0.0-7.0-4.62","","","fixation_3","","","","","",""
"null","","null","html-keyboard-response","570","901284","0.0-7.0-5.62","","","test","leftarrow","0","1","FALSE","FALSE",""
"null","<div style=""font-size:60px;""> </div>","null","html-keyboard-response","571","901586","0.0-7.0-6.62","","","fixation_4","","","","","",""
"325.5","arrows.png","37","image-keyboard-response","572","901913","0.0-7.0-7.62","","","test","leftarrow","0","1","FALSE","FALSE","true"
"null","<p style=""color: green; font-size:300%;"">correct: $2.50</p>","null","html-keyboard-response","573","903165","0.0-7.0-8.62","","","","","","","","",""
"null","<div style=""font-size:60px;""> </div>","null","html-keyboard-response","574","904716","0.0-7.0-0.63","","","fixation_1","","","","","",""
"null","","null","image-keyboard-response","575","904723","0.0-7.0-1.63","","","test","downarrow","0","1","FALSE","FALSE",""
"null","<div style=""font-size:60px;""> </div>","null","html-keyboard-response","576","905025","0.0-7.0-2.63","","","fixation_2","","","","","",""
"null","img_3.bmp","null","image-keyboard-response","577","906027","0.0-7.0-3.63","","","img_on","","","","","",""
"null","<div style=""font-size:60px;""> </div>","null","html-keyboard-response","578","906329","0.0-7.0-4.63","","","fixation_3","","","","","",""
"null","","null","html-keyboard-response","579","906338","0.0-7.0-5.63","","","test","downarrow","0","1","FALSE","FALSE",""
"null","<div style=""font-size:60px;""> </div>","null","html-keyboard-response","580","906640","0.0-7.0-6.63","","","fixation_4","","","","","",""
"334.5","arrows.png","40","image-keyboard-response","581","906976","0.0-7.0-7.63","","","test","downarrow","0","1","FALSE","FALSE","true"
"null","<p style=""color: green; font-size:300%;"">correct: $2.50</p>","null","html-keyboard-response","582","908228","0.0-7.0-8.63","","","","","","","","",""
"null","<div style=""font-size:60px;""> </div>","null","html-keyboard-response","583","909530","0.0-7.0-0.64","","","fixation_1","","","","","",""
"null","","null","image-keyboard-response","584","909536","0.0-7.0-1.64","","","test","downarrow","1","2","FALSE","FALSE",""
"null","<div style=""font-size:60px;""> </div>","null","html-keyboard-response","585","909836","0.0-7.0-2.64","","","fixation_2","","","","","",""
"null","img_6.bmp","null","image-keyboard-response","586","910839","0.0-7.0-3.64","","","img_on","","","","","",""
"null","<div style=""font-size:60px;""> </div>","null","html-keyboard-response","587","911142","0.0-7.0-4.64","","","fixation_3","","","","","",""
"null","","null","html-keyboard-response","588","911148","0.0-7.0-5.64","","","test","downarrow","1","2","FALSE","FALSE",""
"null","<div style=""font-size:60px;""> </div>","null","html-keyboard-response","589","911449","0.0-7.0-6.64","","","fixation_4","","","","","",""
"421.39999985694885","arrows.png","38","image-keyboard-response","590","911872","0.0-7.0-7.64","","","test","downarrow","1","2","FALSE","FALSE","false"
"null","<p style=""color: red; font-size:300%;"">incorrect: $0</p>","null","html-keyboard-response","591","913126","0.0-7.0-8.64","","","","","","","","",""
"null","<div style=""font-size:60px;""> </div>","null","html-keyboard-response","592","914178","0.0-7.0-0.65","","","fixation_1","","","","","",""
"null","","null","image-keyboard-response","593","914184","0.0-7.0-1.65","","","test","uparrow","0","2","FALSE","FALSE",""
"null","<div style=""font-size:60px;""> </div>","null","html-keyboard-response","594","914486","0.0-7.0-2.65","","","fixation_2","","","","","",""
"null","img_8.bmp","null","image-keyboard-response","595","915488","0.0-7.0-3.65","","","img_on","","","","","",""
"null","<div style=""font-size:60px;""> </div>","null","html-keyboard-response","596","915790","0.0-7.0-4.65","","","fixation_3","","","","","",""
"null","","null","html-keyboard-response","597","915796","0.0-7.0-5.65","","","test","uparrow","0","2","FALSE","FALSE",""
"null","<div style=""font-size:60px;""> </div>","null","html-keyboard-response","598","916097","0.0-7.0-6.65","","","fixation_4","","","","","",""
"326.39999985694885","arrows.png","38","image-keyboard-response","599","916425","0.0-7.0-7.65","","","test","uparrow","0","2","FALSE","FALSE","true"
"null","<p style=""color: green; font-size:300%;"">correct: $2.50</p>","null","html-keyboard-response","600","917679","0.0-7.0-8.65","","","","","","","","",""
"null","<div style=""font-size:60px;""> </div>","null","html-keyboard-response","601","918733","0.0-7.0-0.66","","","fixation_1","","","","","",""
"null","","null","image-keyboard-response","602","918739","0.0-7.0-1.66","","","test","rightarrow","0","2","FALSE","FALSE",""
"null","<div style=""font-size:60px;""> </div>","null","html-keyboard-response","603","919040","0.0-7.0-2.66","","","fixation_2","","","","","",""
"null","img_5.bmp","null","image-keyboard-response","604","920042","0.0-7.0-3.66","","","img_on","","","","","",""
"null","<div style=""font-size:60px;""> </div>","null","html-keyboard-response","605","920344","0.0-7.0-4.66","","","fixation_3","","","","","",""
"null","","null","html-keyboard-response","606","920350","0.0-7.0-5.66","","","test","rightarrow","0","2","FALSE","FALSE",""
"null","<div style=""font-size:60px;""> </div>","null","html-keyboard-response","607","920652","0.0-7.0-6.66","","","fixation_4","","","","","",""
"307.2999999523163","arrows.png","39","image-keyboard-response","608","920960","0.0-7.0-7.66","","","test","rightarrow","0","2","FALSE","FALSE","true"
"null","<p style=""color: green; font-size:300%;"">correct: $2.50</p>","null","html-keyboard-response","609","922213","0.0-7.0-8.66","","","","","","","","",""
"null","<div style=""font-size:60px;""> </div>","null","html-keyboard-response","610","923016","0.0-7.0-0.67","","","fixation_1","","","","","",""
"null","","null","image-keyboard-response","611","923021","0.0-7.0-1.67","","","test","leftarrow","1","2","FALSE","FALSE",""
"null","<div style=""font-size:60px;""> </div>","null","html-keyboard-response","612","923324","0.0-7.0-2.67","","","fixation_2","","","","","",""
"null","img_7.bmp","null","image-keyboard-response","613","924325","0.0-7.0-3.67","","","img_on","","","","","",""
"null","<div style=""font-size:60px;""> </div>","null","html-keyboard-response","614","924627","0.0-7.0-4.67","","","fixation_3","","","","","",""
"null","","null","html-keyboard-response","615","924632","0.0-7.0-5.67","","","test","leftarrow","1","2","FALSE","FALSE",""
"null","<div style=""font-size:60px;""> </div>","null","html-keyboard-response","616","924932","0.0-7.0-6.67","","","fixation_4","","","","","",""
"330.40000009536743","arrows.png","37","image-keyboard-response","617","925264","0.0-7.0-7.67","","","test","leftarrow","1","2","FALSE","FALSE","true"
"null","<p style=""color: green; font-size:300%;"">correct: $7.50</p>","null","html-keyboard-response","618","926516","0.0-7.0-8.67","","","","","","","","",""
"null","<div style=""font-size:60px;""> </div>","null","html-keyboard-response","619","928069","0.0-7.0-0.68","","","fixation_1","","","","","",""
"null","","null","image-keyboard-response","620","928075","0.0-7.0-1.68","","","test","rightarrow","0","2","FALSE","FALSE",""
"null","<div style=""font-size:60px;""> </div>","null","html-keyboard-response","621","928376","0.0-7.0-2.68","","","fixation_2","","","","","",""
"null","img_5.bmp","null","image-keyboard-response","622","929378","0.0-7.0-3.68","","","img_on","","","","","",""
"null","<div style=""font-size:60px;""> </div>","null","html-keyboard-response","623","929680","0.0-7.0-4.68","","","fixation_3","","","","","",""
"null","","null","html-keyboard-response","624","929686","0.0-7.0-5.68","","","test","rightarrow","0","2","FALSE","FALSE",""
"null","<div style=""font-size:60px;""> </div>","null","html-keyboard-response","625","929988","0.0-7.0-6.68","","","fixation_4","","","","","",""
"43.299999952316284","arrows.png","39","image-keyboard-response","626","930032","0.0-7.0-7.68","","","test","rightarrow","0","2","FALSE","FALSE","true"
"null","<p style=""color: green; font-size:300%;"">correct: $2.50</p>","null","html-keyboard-response","627","931285","0.0-7.0-8.68","","","","","","","","",""
"null","<div style=""font-size:60px;""> </div>","null","html-keyboard-response","628","932589","0.0-7.0-0.69","","","fixation_1","","","","","",""
"null","","null","image-keyboard-response","629","932595","0.0-7.0-1.69","","","test","leftarrow","1","2","FALSE","FALSE",""
"null","<div style=""font-size:60px;""> </div>","null","html-keyboard-response","630","932897","0.0-7.0-2.69","","","fixation_2","","","","","",""
"null","img_7.bmp","null","image-keyboard-response","631","933899","0.0-7.0-3.69","","","img_on","","","","","",""
"null","<div style=""font-size:60px;""> </div>","null","html-keyboard-response","632","934202","0.0-7.0-4.69","","","fixation_3","","","","","",""
"null","","null","html-keyboard-response","633","934208","0.0-7.0-5.69","","","test","leftarrow","1","2","FALSE","FALSE",""
"null","<div style=""font-size:60px;""> </div>","null","html-keyboard-response","634","934509","0.0-7.0-6.69","","","fixation_4","","","","","",""
"330.2999999523163","arrows.png","37","image-keyboard-response","635","934840","0.0-7.0-7.69","","","test","leftarrow","1","2","FALSE","FALSE","true"
"null","<p style=""color: green; font-size:300%;"">correct: $7.50</p>","null","html-keyboard-response","636","936093","0.0-7.0-8.69","","","","","","","","",""
"null","<div style=""font-size:60px;""> </div>","null","html-keyboard-response","637","937649","0.0-7.0-0.70","","","fixation_1","","","","","",""
"null","","null","image-keyboard-response","638","937654","0.0-7.0-1.70","","","test","uparrow","0","2","FALSE","FALSE",""
"null","<div style=""font-size:60px;""> </div>","null","html-keyboard-response","639","937957","0.0-7.0-2.70","","","fixation_2","","","","","",""
"null","img_8.bmp","null","image-keyboard-response","640","938960","0.0-7.0-3.70","","","img_on","","","","","",""
"null","<div style=""font-size:60px;""> </div>","null","html-keyboard-response","641","939263","0.0-7.0-4.70","","","fixation_3","","","","","",""
"null","","null","html-keyboard-response","642","939269","0.0-7.0-5.70","","","test","uparrow","0","2","FALSE","FALSE",""
"null","<div style=""font-size:60px;""> </div>","null","html-keyboard-response","643","939571","0.0-7.0-6.70","","","fixation_4","","","","","",""
"389.2999999523163","arrows.png","38","image-keyboard-response","644","939961","0.0-7.0-7.70","","","test","uparrow","0","2","FALSE","FALSE","true"
"null","<p style=""color: green; font-size:300%;"">correct: $2.50</p>","null","html-keyboard-response","645","941215","0.0-7.0-8.70","","","","","","","","",""
"null","<div style=""font-size:60px;""> </div>","null","html-keyboard-response","646","942017","0.0-7.0-0.71","","","fixation_1","","","","","",""
"null","","null","image-keyboard-response","647","942023","0.0-7.0-1.71","","","test","downarrow","1","2","FALSE","FALSE",""
"null","<div style=""font-size:60px;""> </div>","null","html-keyboard-response","648","942325","0.0-7.0-2.71","","","fixation_2","","","","","",""
"null","img_6.bmp","null","image-keyboard-response","649","943327","0.0-7.0-3.71","","","img_on","","","","","",""
"null","<div style=""font-size:60px;""> </div>","null","html-keyboard-response","650","943630","0.0-7.0-4.71","","","fixation_3","","","","","",""
"null","","null","html-keyboard-response","651","943636","0.0-7.0-5.71","","","test","downarrow","1","2","FALSE","FALSE",""
"null","<div style=""font-size:60px;""> </div>","null","html-keyboard-response","652","943938","0.0-7.0-6.71","","","fixation_4","","","","","",""
"430.2999999523163","arrows.png","40","image-keyboard-response","653","944369","0.0-7.0-7.71","","","test","downarrow","1","2","FALSE","FALSE","true"
"null","<p style=""color: green; font-size:300%;"">correct: $7.50</p>","null","html-keyboard-response","654","945622","0.0-7.0-8.71","","","","","","","","",""
"null","<div style=""font-size:60px;""> </div>","null","html-keyboard-response","655","947175","0.0-7.0-0.72","","","fixation_1","","","","","",""
"null","","null","image-keyboard-response","656","947182","0.0-7.0-1.72","","","test","leftarrow","1","2","FALSE","FALSE",""
"null","<div style=""font-size:60px;""> </div>","null","html-keyboard-response","657","947484","0.0-7.0-2.72","","","fixation_2","","","","","",""
"null","img_7.bmp","null","image-keyboard-response","658","948486","0.0-7.0-3.72","","","img_on","","","","","",""
"null","<div style=""font-size:60px;""> </div>","null","html-keyboard-response","659","948787","0.0-7.0-4.72","","","fixation_3","","","","","",""
"null","","null","html-keyboard-response","660","948794","0.0-7.0-5.72","","","test","leftarrow","1","2","FALSE","FALSE",""
"null","<div style=""font-size:60px;""> </div>","null","html-keyboard-response","661","949096","0.0-7.0-6.72","","","fixation_4","","","","","",""
"328.2000000476837","arrows.png","37","image-keyboard-response","662","949426","0.0-7.0-7.72","","","test","leftarrow","1","2","FALSE","FALSE","true"
"null","<p style=""color: green; font-size:300%;"">correct: $7.50</p>","null","html-keyboard-response","663","950679","0.0-7.0-8.72","","","","","","","","",""
"null","<div style=""font-size:60px;""> </div>","null","html-keyboard-response","664","951731","0.0-7.0-0.73","","","fixation_1","","","","","",""
"null","","null","image-keyboard-response","665","951737","0.0-7.0-1.73","","","test","rightarrow","0","2","FALSE","FALSE",""
"null","<div style=""font-size:60px;""> </div>","null","html-keyboard-response","666","952039","0.0-7.0-2.73","","","fixation_2","","","","","",""
"null","img_5.bmp","null","image-keyboard-response","667","953041","0.0-7.0-3.73","","","img_on","","","","","",""
"null","<div style=""font-size:60px;""> </div>","null","html-keyboard-response","668","953343","0.0-7.0-4.73","","","fixation_3","","","","","",""
"null","","null","html-keyboard-response","669","953350","0.0-7.0-5.73","","","test","rightarrow","0","2","FALSE","FALSE",""
"null","<div style=""font-size:60px;""> </div>","null","html-keyboard-response","670","953651","0.0-7.0-6.73","","","fixation_4","","","","","",""
"444","arrows.png","39","image-keyboard-response","671","954097","0.0-7.0-7.73","","","test","rightarrow","0","2","FALSE","FALSE","true"
"null","<p style=""color: green; font-size:300%;"">correct: $2.50</p>","null","html-keyboard-response","672","955350","0.0-7.0-8.73","","","","","","","","",""
"null","<div style=""font-size:60px;""> </div>","null","html-keyboard-response","673","956152","0.0-7.0-0.74","","","fixation_1","","","","","",""
"null","","null","image-keyboard-response","674","956158","0.0-7.0-1.74","","","test","downarrow","1","2","FALSE","FALSE",""
"null","<div style=""font-size:60px;""> </div>","null","html-keyboard-response","675","956460","0.0-7.0-2.74","","","fixation_2","","","","","",""
"null","img_6.bmp","null","image-keyboard-response","676","957464","0.0-7.0-3.74","","","img_on","","","","","",""
"null","<div style=""font-size:60px;""> </div>","null","html-keyboard-response","677","957767","0.0-7.0-4.74","","","fixation_3","","","","","",""
"null","","null","html-keyboard-response","678","957773","0.0-7.0-5.74","","","test","downarrow","1","2","FALSE","FALSE",""
"null","<div style=""font-size:60px;""> </div>","null","html-keyboard-response","679","958074","0.0-7.0-6.74","","","fixation_4","","","","","",""
"340.90000009536743","arrows.png","40","image-keyboard-response","680","958416","0.0-7.0-7.74","","","test","downarrow","1","2","FALSE","FALSE","true"
"null","<p style=""color: green; font-size:300%;"">correct: $7.50</p>","null","html-keyboard-response","681","959669","0.0-7.0-8.74","","","","","","","","",""
"null","<div style=""font-size:60px;""> </div>","null","html-keyboard-response","682","960722","0.0-7.0-0.75","","","fixation_1","","","","","",""
"null","","null","image-keyboard-response","683","960729","0.0-7.0-1.75","","","test","uparrow","0","2","FALSE","FALSE",""
"null","<div style=""font-size:60px;""> </div>","null","html-keyboard-response","684","961030","0.0-7.0-2.75","","","fixation_2","","","","","",""
"null","img_8.bmp","null","image-keyboard-response","685","962032","0.0-7.0-3.75","","","img_on","","","","","",""
"null","<div style=""font-size:60px;""> </div>","null","html-keyboard-response","686","962334","0.0-7.0-4.75","","","fixation_3","","","","","",""
"null","","null","html-keyboard-response","687","962340","0.0-7.0-5.75","","","test","uparrow","0","2","FALSE","FALSE",""
"null","<div style=""font-size:60px;""> </div>","null","html-keyboard-response","688","962642","0.0-7.0-6.75","","","fixation_4","","","","","",""
"652.3999998569489","arrows.png","38","image-keyboard-response","689","963296","0.0-7.0-7.75","","","test","uparrow","0","2","FALSE","FALSE","true"
"null","<p style=""color: green; font-size:300%;"">correct: $2.50</p>","null","html-keyboard-response","690","964549","0.0-7.0-8.75","","","","","","","","",""
"null","<div style=""font-size:60px;""> </div>","null","html-keyboard-response","691","965352","0.0-7.0-0.76","","","fixation_1","","","","","",""
"null","","null","image-keyboard-response","692","965358","0.0-7.0-1.76","","","test","downarrow","1","2","FALSE","FALSE",""
"null","<div style=""font-size:60px;""> </div>","null","html-keyboard-response","693","965659","0.0-7.0-2.76","","","fixation_2","","","","","",""
"null","img_6.bmp","null","image-keyboard-response","694","966661","0.0-7.0-3.76","","","img_on","","","","","",""
"null","<div style=""font-size:60px;""> </div>","null","html-keyboard-response","695","966966","0.0-7.0-4.76","","","fixation_3","","","","","",""
"null","","null","html-keyboard-response","696","966971","0.0-7.0-5.76","","","test","downarrow","1","2","FALSE","FALSE",""
"null","<div style=""font-size:60px;""> </div>","null","html-keyboard-response","697","967272","0.0-7.0-6.76","","","fixation_4","","","","","",""
"334.30000019073486","arrows.png","40","image-keyboard-response","698","967609","0.0-7.0-7.76","","","test","downarrow","1","2","FALSE","FALSE","true"
"null","<p style=""color: green; font-size:300%;"">correct: $7.50</p>","null","html-keyboard-response","699","968863","0.0-7.0-8.76","","","","","","","","",""
"null","<div style=""font-size:60px;""> </div>","null","html-keyboard-response","700","970417","0.0-7.0-0.77","","","fixation_1","","","","","",""
"null","","null","image-keyboard-response","701","970423","0.0-7.0-1.77","","","test","uparrow","0","2","FALSE","FALSE",""
"null","<div style=""font-size:60px;""> </div>","null","html-keyboard-response","702","970726","0.0-7.0-2.77","","","fixation_2","","","","","",""
"null","img_8.bmp","null","image-keyboard-response","703","971728","0.0-7.0-3.77","","","img_on","","","","","",""
"null","<div style=""font-size:60px;""> </div>","null","html-keyboard-response","704","972030","0.0-7.0-4.77","","","fixation_3","","","","","",""
"null","","null","html-keyboard-response","705","972036","0.0-7.0-5.77","","","test","uparrow","0","2","FALSE","FALSE",""
"null","<div style=""font-size:60px;""> </div>","null","html-keyboard-response","706","972337","0.0-7.0-6.77","","","fixation_4","","","","","",""
"389.69999980926514","arrows.png","38","image-keyboard-response","707","972728","0.0-7.0-7.77","","","test","uparrow","0","2","FALSE","FALSE","true"
"null","<p style=""color: green; font-size:300%;"">correct: $2.50</p>","null","html-keyboard-response","708","973981","0.0-7.0-8.77","","","","","","","","",""
"null","<div style=""font-size:60px;""> </div>","null","html-keyboard-response","709","975033","0.0-7.0-0.78","","","fixation_1","","","","","",""
