"rt","stimulus","key_press","trial_type","trial_index","time_elapsed","internal_node_id","responses","view_history","test_part","correct_response","outcome","context","cc","sc","correct"
"14233.199999988079","<p><b>Welcome to the Picture Learning Game!</b></p>
      <p>The game will take ~35 minutes to complete, and you can make up to $17.50.</p>
      <p>You must use a desktop or laptop computer computer (no mobile devices).</p>
      <p><em>Press any key to continue.</em></p>","32","html-keyboard-response","0","14263","0.0-0.0","","","","","","","","",""
"32024.5","","","survey-text","1","46292","0.0-1.0","{""aws"":""A1RV2LERVS0A4H""}","","","","","","","",""
"92448.5","","","survey-text","2","138746","0.0-2.0","{""age"":""34"",""english"":""Y"",""handedness"":""R"",""desktop"":""Y""}","","","","","","","",""
"69953.10000000894","","","instructions","3","208700","0.0-3.0","","[{""page_index"":0,""viewing_time"":2329},{""page_index"":1,""viewing_time"":11269.60000000894},{""page_index"":2,""viewing_time"":7334.0999999940395},{""page_index"":3,""viewing_time"":30690},{""page_index"":4,""viewing_time"":18329.90000000596}]","","","","","","",""
"null","sample1.bmp","null","image-keyboard-response","4","209703","0.0-4.0","","","","","","","","",""
"877","arrows.png","38","image-keyboard-response","5","210884","0.0-5.0","","","","","","","","",""
"42936.89999999106","","","instructions","6","253822","0.0-6.0","","[{""page_index"":0,""viewing_time"":3028.5},{""page_index"":1,""viewing_time"":26568},{""page_index"":2,""viewing_time"":13340}]","","","","","","",""
"null","sample1.bmp","null","image-keyboard-response","7","254824","0.0-7.0","","","","","","","","",""
"null","<img src=""CC1.png"" width=200 height=200/>","null","html-keyboard-response","8","256127","0.0-8.0","","","","","","","","",""
"358.20000000298023","arrows.png","38","image-keyboard-response","9","256788","0.0-9.0","","","","","","","","",""
"9639.79999999702","","","instructions","10","266428","0.0-10.0","","[{""page_index"":0,""viewing_time"":2907.0999999940395},{""page_index"":1,""viewing_time"":6732.20000000298}]","","","","","","",""
"null","sample1.bmp","null","image-keyboard-response","11","267429","0.0-11.0","","","","","","","","",""
"null","<img src=""CC2.png"" width=200 height=200/>","null","html-keyboard-response","12","268731","0.0-12.0","","","","","","","","",""
"440","arrows.png","39","image-keyboard-response","13","269472","0.0-13.0","","","","","","","","",""
"80805.19999998808","","","instructions","14","350277","0.0-14.0","","[{""page_index"":0,""viewing_time"":1849},{""page_index"":1,""viewing_time"":27395.69999998808},{""page_index"":2,""viewing_time"":16758.10000000894},{""page_index"":3,""viewing_time"":16730.09999999404},{""page_index"":4,""viewing_time"":18072}]","","","","","","",""
"null","sample1.bmp","null","image-keyboard-response","15","351279","0.0-15.0","","","","","","","","",""
"639.3999999910593","arrows.png","39","image-keyboard-response","16","352221","0.0-16.0","","","","","","","","",""
"33625.60000000894","","","instructions","17","385847","0.0-17.0","","[{""page_index"":0,""viewing_time"":8009.100000008941},{""page_index"":1,""viewing_time"":17516.70000000298},{""page_index"":2,""viewing_time"":8099.399999991059}]","","","","","","",""
"null","sample1.bmp","null","image-keyboard-response","18","386848","0.0-18.0","","","","","","","","",""
"855.6999999880791","arrows.png","39","image-keyboard-response","19","388007","0.0-19.0","","","","","","","","",""
"null","<p style=""color: green; font-size:300%;"">correct</p>","null","html-keyboard-response","20","389009","0.0-20.0","","","","","","","","",""
"null","switch_cue.png","null","image-keyboard-response","21","390313","0.0-21.0","","","","","","","","",""
"null","sample1.bmp","null","image-keyboard-response","22","391614","0.0-22.0","","","","","","","","",""
"null","<img src=""CC2.png"" width=200 height=200/>","null","html-keyboard-response","23","392917","0.0-23.0","","","","","","","","",""
"390.59999999403954","arrows.png","39","image-keyboard-response","24","393609","0.0-24.0","","","","","","","","",""
"null","<p style=""color: green; font-size:300%;"">correct</p>","null","html-keyboard-response","25","394611","0.0-25.0","","","","","","","","",""
"null","switch_cue.png","null","image-keyboard-response","26","395913","0.0-26.0","","","","","","","","",""
"null","sample1.bmp","null","image-keyboard-response","27","397216","0.0-27.0","","","","","","","","",""
"null","<img src=""CC1.png"" width=200 height=200/>","null","html-keyboard-response","28","398519","0.0-28.0","","","","","","","","",""
"441","arrows.png","38","image-keyboard-response","29","399268","0.0-29.0","","","","","","","","",""
"null","<p style=""color: green; font-size:300%;"">correct</p>","null","html-keyboard-response","30","400270","0.0-30.0","","","","","","","","",""
"283822.700000003","","","instructions","31","684394","0.0-31.0","","[{""page_index"":0,""viewing_time"":16272.79999999702},{""page_index"":1,""viewing_time"":2056.2000000029802},{""page_index"":2,""viewing_time"":19207.70000000298},{""page_index"":3,""viewing_time"":11724.199999988079},{""page_index"":4,""viewing_time"":150015.80000001192},{""page_index"":5,""viewing_time"":4385.5},{""page_index"":6,""viewing_time"":76966.39999999106},{""page_index"":7,""viewing_time"":3193.7999999970198}]","","","","","","",""
"null","<div style=""font-size:60px;""> </div>","null","html-keyboard-response","32","684696","0.0-32.0-0.0","","","fixation_1","","","","","",""
"null","","null","image-keyboard-response","33","684700","0.0-32.0-1.0","","","test","leftarrow","0","1","TRUE","FALSE",""
"null","<div style=""font-size:60px;""> </div>","null","html-keyboard-response","34","685003","0.0-32.0-2.0","","","fixation_2","","","","","",""
"null","img_4.bmp","null","image-keyboard-response","35","686005","0.0-32.0-3.0","","","img_on","","","","","",""
"null","<div style=""font-size:60px;""> </div>","null","html-keyboard-response","36","686307","0.0-32.0-4.0","","","fixation_3","","","","","",""
"null","<img src=""CC1.png"" width=200 height=200/>","null","html-keyboard-response","37","687309","0.0-32.0-5.0","","","test","leftarrow","0","1","TRUE","FALSE",""
"null","<div style=""font-size:60px;""> </div>","null","html-keyboard-response","38","687611","0.0-32.0-6.0","","","fixation_4","","","","","",""
"525.7999999970198","arrows.png","39","image-keyboard-response","39","688138","0.0-32.0-7.0","","","test","leftarrow","0","1","TRUE","FALSE","false"
"null","<p style=""color: red; font-size:300%;"">incorrect: $0</p>","null","html-keyboard-response","40","689393","0.0-32.0-8.0","","","","","","","","",""
"null","<div style=""font-size:60px;""> </div>","null","html-keyboard-response","41","689946","0.0-32.0-0.1","","","fixation_1","","","","","",""
"null","","null","image-keyboard-response","42","689954","0.0-32.0-1.1","","","test","downarrow","0","1","TRUE","FALSE",""
"null","<div style=""font-size:60px;""> </div>","null","html-keyboard-response","43","690255","0.0-32.0-2.1","","","fixation_2","","","","","",""
"null","img_3.bmp","null","image-keyboard-response","44","691256","0.0-32.0-3.1","","","img_on","","","","","",""
"null","<div style=""font-size:60px;""> </div>","null","html-keyboard-response","45","691559","0.0-32.0-4.1","","","fixation_3","","","","","",""
"null","<img src=""CC1.png"" width=200 height=200/>","null","html-keyboard-response","46","692561","0.0-32.0-5.1","","","test","downarrow","0","1","TRUE","FALSE",""
"null","<div style=""font-size:60px;""> </div>","null","html-keyboard-response","47","692862","0.0-32.0-6.1","","","fixation_4","","","","","",""
"460.80000001192093","arrows.png","39","image-keyboard-response","48","693324","0.0-32.0-7.1","","","test","downarrow","0","1","TRUE","FALSE","false"
"null","<p style=""color: red; font-size:300%;"">incorrect: $0</p>","null","html-keyboard-response","49","694576","0.0-32.0-8.1","","","","","","","","",""
"null","<div style=""font-size:60px;""> </div>","null","html-keyboard-response","50","695379","0.0-32.0-0.2","","","fixation_1","","","","","",""
"null","","null","image-keyboard-response","51","695386","0.0-32.0-1.2","","","test","uparrow","1","1","TRUE","FALSE",""
"null","<div style=""font-size:60px;""> </div>","null","html-keyboard-response","52","695688","0.0-32.0-2.2","","","fixation_2","","","","","",""
"null","img_1.bmp","null","image-keyboard-response","53","696690","0.0-32.0-3.2","","","img_on","","","","","",""
"null","<div style=""font-size:60px;""> </div>","null","html-keyboard-response","54","696991","0.0-32.0-4.2","","","fixation_3","","","","","",""
"null","<img src=""CC1.png"" width=200 height=200/>","null","html-keyboard-response","55","697993","0.0-32.0-5.2","","","test","uparrow","1","1","TRUE","FALSE",""
"null","<div style=""font-size:60px;""> </div>","null","html-keyboard-response","56","698295","0.0-32.0-6.2","","","fixation_4","","","","","",""
"526.9000000059605","arrows.png","39","image-keyboard-response","57","698823","0.0-32.0-7.2","","","test","uparrow","1","1","TRUE","FALSE","false"
"null","<p style=""color: red; font-size:300%;"">incorrect: $0</p>","null","html-keyboard-response","58","700076","0.0-32.0-8.2","","","","","","","","",""
"null","<div style=""font-size:60px;""> </div>","null","html-keyboard-response","59","701629","0.0-32.0-0.3","","","fixation_1","","","","","",""
"null","","null","image-keyboard-response","60","701636","0.0-32.0-1.3","","","test","rightarrow","1","1","TRUE","FALSE",""
"null","<div style=""font-size:60px;""> </div>","null","html-keyboard-response","61","701938","0.0-32.0-2.3","","","fixation_2","","","","","",""
"null","img_2.bmp","null","image-keyboard-response","62","702939","0.0-32.0-3.3","","","img_on","","","","","",""
"null","<div style=""font-size:60px;""> </div>","null","html-keyboard-response","63","703242","0.0-32.0-4.3","","","fixation_3","","","","","",""
"null","<img src=""CC1.png"" width=200 height=200/>","null","html-keyboard-response","64","704244","0.0-32.0-5.3","","","test","rightarrow","1","1","TRUE","FALSE",""
"null","<div style=""font-size:60px;""> </div>","null","html-keyboard-response","65","704546","0.0-32.0-6.3","","","fixation_4","","","","","",""
"562.7999999970198","arrows.png","39","image-keyboard-response","66","705110","0.0-32.0-7.3","","","test","rightarrow","1","1","TRUE","FALSE","true"
"null","<p style=""color: green; font-size:300%;"">correct: $7.50</p>","null","html-keyboard-response","67","706365","0.0-32.0-8.3","","","","","","","","",""
"null","<div style=""font-size:60px;""> </div>","null","html-keyboard-response","68","707917","0.0-32.0-0.4","","","fixation_1","","","","","",""
"null","","null","image-keyboard-response","69","707926","0.0-32.0-1.4","","","test","uparrow","1","1","FALSE","FALSE",""
"null","<div style=""font-size:60px;""> </div>","null","html-keyboard-response","70","708234","0.0-32.0-2.4","","","fixation_2","","","","","",""
"null","img_1.bmp","null","image-keyboard-response","71","709236","0.0-32.0-3.4","","","img_on","","","","","",""
"null","<div style=""font-size:60px;""> </div>","null","html-keyboard-response","72","709536","0.0-32.0-4.4","","","fixation_3","","","","","",""
"null","","null","html-keyboard-response","73","709541","0.0-32.0-5.4","","","test","uparrow","1","1","FALSE","FALSE",""
"null","<div style=""font-size:60px;""> </div>","null","html-keyboard-response","74","709843","0.0-32.0-6.4","","","fixation_4","","","","","",""
"769.5999999940395","arrows.png","37","image-keyboard-response","75","710614","0.0-32.0-7.4","","","test","uparrow","1","1","FALSE","FALSE","false"
"null","<p style=""color: red; font-size:300%;"">incorrect: $0</p>","null","html-keyboard-response","76","711866","0.0-32.0-8.4","","","","","","","","",""
"null","<div style=""font-size:60px;""> </div>","null","html-keyboard-response","77","712669","0.0-32.0-0.5","","","fixation_1","","","","","",""
"null","","null","image-keyboard-response","78","712675","0.0-32.0-1.5","","","test","leftarrow","0","1","FALSE","FALSE",""
"null","<div style=""font-size:60px;""> </div>","null","html-keyboard-response","79","712977","0.0-32.0-2.5","","","fixation_2","","","","","",""
"null","img_4.bmp","null","image-keyboard-response","80","713980","0.0-32.0-3.5","","","img_on","","","","","",""
"null","<div style=""font-size:60px;""> </div>","null","html-keyboard-response","81","714281","0.0-32.0-4.5","","","fixation_3","","","","","",""
"null","","null","html-keyboard-response","82","714288","0.0-32.0-5.5","","","test","leftarrow","0","1","FALSE","FALSE",""
"null","<div style=""font-size:60px;""> </div>","null","html-keyboard-response","83","714589","0.0-32.0-6.5","","","fixation_4","","","","","",""
"915.8999999910593","arrows.png","37","image-keyboard-response","84","715507","0.0-32.0-7.5","","","test","leftarrow","0","1","FALSE","FALSE","true"
"null","<p style=""color: green; font-size:300%;"">correct: $2.50</p>","null","html-keyboard-response","85","716759","0.0-32.0-8.5","","","","","","","","",""
"null","<div style=""font-size:60px;""> </div>","null","html-keyboard-response","86","717311","0.0-32.0-0.6","","","fixation_1","","","","","",""
"null","","null","image-keyboard-response","87","717317","0.0-32.0-1.6","","","test","downarrow","0","1","FALSE","FALSE",""
"null","<div style=""font-size:60px;""> </div>","null","html-keyboard-response","88","717618","0.0-32.0-2.6","","","fixation_2","","","","","",""
"null","img_3.bmp","null","image-keyboard-response","89","718621","0.0-32.0-3.6","","","img_on","","","","","",""
"null","<div style=""font-size:60px;""> </div>","null","html-keyboard-response","90","718923","0.0-32.0-4.6","","","fixation_3","","","","","",""
"null","","null","html-keyboard-response","91","718929","0.0-32.0-5.6","","","test","downarrow","0","1","FALSE","FALSE",""
"null","<div style=""font-size:60px;""> </div>","null","html-keyboard-response","92","719230","0.0-32.0-6.6","","","fixation_4","","","","","",""
"939.0999999940395","arrows.png","38","image-keyboard-response","93","720170","0.0-32.0-7.6","","","test","downarrow","0","1","FALSE","FALSE","false"
"null","<p style=""color: red; font-size:300%;"">incorrect: $0</p>","null","html-keyboard-response","94","721422","0.0-32.0-8.6","","","","","","","","",""
"null","<div style=""font-size:60px;""> </div>","null","html-keyboard-response","95","721974","0.0-32.0-0.7","","","fixation_1","","","","","",""
"null","","null","image-keyboard-response","96","721980","0.0-32.0-1.7","","","test","rightarrow","1","1","FALSE","FALSE",""
"null","<div style=""font-size:60px;""> </div>","null","html-keyboard-response","97","722281","0.0-32.0-2.7","","","fixation_2","","","","","",""
"null","img_2.bmp","null","image-keyboard-response","98","723284","0.0-32.0-3.7","","","img_on","","","","","",""
"null","<div style=""font-size:60px;""> </div>","null","html-keyboard-response","99","723586","0.0-32.0-4.7","","","fixation_3","","","","","",""
"null","","null","html-keyboard-response","100","723592","0.0-32.0-5.7","","","test","rightarrow","1","1","FALSE","FALSE",""
"null","<div style=""font-size:60px;""> </div>","null","html-keyboard-response","101","723894","0.0-32.0-6.7","","","fixation_4","","","","","",""
"680.5999999940395","arrows.png","39","image-keyboard-response","102","724576","0.0-32.0-7.7","","","test","rightarrow","1","1","FALSE","FALSE","true"
"null","<p style=""color: green; font-size:300%;"">correct: $7.50</p>","null","html-keyboard-response","103","725830","0.0-32.0-8.7","","","","","","","","",""
"null","<div style=""font-size:60px;""> </div>","null","html-keyboard-response","104","727131","0.0-32.0-0.8","","","fixation_1","","","","","",""
"null","","null","image-keyboard-response","105","727139","0.0-32.0-1.8","","","test","leftarrow","0","1","FALSE","FALSE",""
"null","<div style=""font-size:60px;""> </div>","null","html-keyboard-response","106","727441","0.0-32.0-2.8","","","fixation_2","","","","","",""
"null","img_4.bmp","null","image-keyboard-response","107","728458","0.0-32.0-3.8","","","img_on","","","","","",""
"null","<div style=""font-size:60px;""> </div>","null","html-keyboard-response","108","728760","0.0-32.0-4.8","","","fixation_3","","","","","",""
"null","","null","html-keyboard-response","109","728765","0.0-32.0-5.8","","","test","leftarrow","0","1","FALSE","FALSE",""
"null","<div style=""font-size:60px;""> </div>","null","html-keyboard-response","110","729066","0.0-32.0-6.8","","","fixation_4","","","","","",""
"798","arrows.png","40","image-keyboard-response","111","729865","0.0-32.0-7.8","","","test","leftarrow","0","1","FALSE","FALSE","false"
"null","<p style=""color: red; font-size:300%;"">incorrect: $0</p>","null","html-keyboard-response","112","731117","0.0-32.0-8.8","","","","","","","","",""
"null","<div style=""font-size:60px;""> </div>","null","html-keyboard-response","113","732169","0.0-32.0-0.9","","","fixation_1","","","","","",""
"null","","null","image-keyboard-response","114","732176","0.0-32.0-1.9","","","test","uparrow","1","1","FALSE","FALSE",""
"null","<div style=""font-size:60px;""> </div>","null","html-keyboard-response","115","732478","0.0-32.0-2.9","","","fixation_2","","","","","",""
"null","img_1.bmp","null","image-keyboard-response","116","733480","0.0-32.0-3.9","","","img_on","","","","","",""
"null","<div style=""font-size:60px;""> </div>","null","html-keyboard-response","117","733785","0.0-32.0-4.9","","","fixation_3","","","","","",""
"null","","null","html-keyboard-response","118","733800","0.0-32.0-5.9","","","test","uparrow","1","1","FALSE","FALSE",""
"null","<div style=""font-size:60px;""> </div>","null","html-keyboard-response","119","734101","0.0-32.0-6.9","","","fixation_4","","","","","",""
"468.59999999403954","arrows.png","40","image-keyboard-response","120","734572","0.0-32.0-7.9","","","test","uparrow","1","1","FALSE","FALSE","false"
"null","<p style=""color: red; font-size:300%;"">incorrect: $0</p>","null","html-keyboard-response","121","735825","0.0-32.0-8.9","","","","","","","","",""
"null","<div style=""font-size:60px;""> </div>","null","html-keyboard-response","122","737377","0.0-32.0-0.10","","","fixation_1","","","","","",""
"null","","null","image-keyboard-response","123","737384","0.0-32.0-1.10","","","test","downarrow","0","1","FALSE","FALSE",""
"null","<div style=""font-size:60px;""> </div>","null","html-keyboard-response","124","737686","0.0-32.0-2.10","","","fixation_2","","","","","",""
"null","img_3.bmp","null","image-keyboard-response","125","738690","0.0-32.0-3.10","","","img_on","","","","","",""
"null","<div style=""font-size:60px;""> </div>","null","html-keyboard-response","126","738992","0.0-32.0-4.10","","","fixation_3","","","","","",""
"null","","null","html-keyboard-response","127","738998","0.0-32.0-5.10","","","test","downarrow","0","1","FALSE","FALSE",""
"null","<div style=""font-size:60px;""> </div>","null","html-keyboard-response","128","739300","0.0-32.0-6.10","","","fixation_4","","","","","",""
"547.9000000059605","arrows.png","40","image-keyboard-response","129","739849","0.0-32.0-7.10","","","test","downarrow","0","1","FALSE","FALSE","true"
"null","<p style=""color: green; font-size:300%;"">correct: $2.50</p>","null","html-keyboard-response","130","741105","0.0-32.0-8.10","","","","","","","","",""
"null","<div style=""font-size:60px;""> </div>","null","html-keyboard-response","131","742407","0.0-32.0-0.11","","","fixation_1","","","","","",""
"null","","null","image-keyboard-response","132","742413","0.0-32.0-1.11","","","test","rightarrow","1","1","FALSE","FALSE",""
"null","<div style=""font-size:60px;""> </div>","null","html-keyboard-response","133","742715","0.0-32.0-2.11","","","fixation_2","","","","","",""
"null","img_2.bmp","null","image-keyboard-response","134","743718","0.0-32.0-3.11","","","img_on","","","","","",""
"null","<div style=""font-size:60px;""> </div>","null","html-keyboard-response","135","744030","0.0-32.0-4.11","","","fixation_3","","","","","",""
"null","","null","html-keyboard-response","136","744035","0.0-32.0-5.11","","","test","rightarrow","1","1","FALSE","FALSE",""
"null","<div style=""font-size:60px;""> </div>","null","html-keyboard-response","137","744337","0.0-32.0-6.11","","","fixation_4","","","","","",""
"711.2999999970198","arrows.png","39","image-keyboard-response","138","745050","0.0-32.0-7.11","","","test","rightarrow","1","1","FALSE","FALSE","true"
"null","<p style=""color: green; font-size:300%;"">correct: $7.50</p>","null","html-keyboard-response","139","746302","0.0-32.0-8.11","","","","","","","","",""
"null","<div style=""font-size:60px;""> </div>","null","html-keyboard-response","140","747858","0.0-32.0-0.12","","","fixation_1","","","","","",""
"null","","null","image-keyboard-response","141","747866","0.0-32.0-1.12","","","test","downarrow","0","1","FALSE","FALSE",""
"null","<div style=""font-size:60px;""> </div>","null","html-keyboard-response","142","748167","0.0-32.0-2.12","","","fixation_2","","","","","",""
"null","img_3.bmp","null","image-keyboard-response","143","749169","0.0-32.0-3.12","","","img_on","","","","","",""
"null","<div style=""font-size:60px;""> </div>","null","html-keyboard-response","144","749471","0.0-32.0-4.12","","","fixation_3","","","","","",""
"null","","null","html-keyboard-response","145","749477","0.0-32.0-5.12","","","test","downarrow","0","1","FALSE","FALSE",""
"null","<div style=""font-size:60px;""> </div>","null","html-keyboard-response","146","749783","0.0-32.0-6.12","","","fixation_4","","","","","",""
"501.70000000298023","arrows.png","40","image-keyboard-response","147","750286","0.0-32.0-7.12","","","test","downarrow","0","1","FALSE","FALSE","true"
"null","<p style=""color: green; font-size:300%;"">correct: $2.50</p>","null","html-keyboard-response","148","751538","0.0-32.0-8.12","","","","","","","","",""
"null","<div style=""font-size:60px;""> </div>","null","html-keyboard-response","149","753091","0.0-32.0-0.13","","","fixation_1","","","","","",""
"null","","null","image-keyboard-response","150","753099","0.0-32.0-1.13","","","test","rightarrow","1","1","FALSE","FALSE",""
"null","<div style=""font-size:60px;""> </div>","null","html-keyboard-response","151","753401","0.0-32.0-2.13","","","fixation_2","","","","","",""
"null","img_2.bmp","null","image-keyboard-response","152","754404","0.0-32.0-3.13","","","img_on","","","","","",""
"null","<div style=""font-size:60px;""> </div>","null","html-keyboard-response","153","754706","0.0-32.0-4.13","","","fixation_3","","","","","",""
"null","","null","html-keyboard-response","154","754712","0.0-32.0-5.13","","","test","rightarrow","1","1","FALSE","FALSE",""
"null","<div style=""font-size:60px;""> </div>","null","html-keyboard-response","155","755014","0.0-32.0-6.13","","","fixation_4","","","","","",""
"797.1999999880791","arrows.png","39","image-keyboard-response","156","755813","0.0-32.0-7.13","","","test","rightarrow","1","1","FALSE","FALSE","true"
"null","<p style=""color: green; font-size:300%;"">correct: $7.50</p>","null","html-keyboard-response","157","757065","0.0-32.0-8.13","","","","","","","","",""
"null","<div style=""font-size:60px;""> </div>","null","html-keyboard-response","158","757873","0.0-32.0-0.14","","","fixation_1","","","","","",""
"null","","null","image-keyboard-response","159","757880","0.0-32.0-1.14","","","test","leftarrow","0","1","FALSE","FALSE",""
"null","<div style=""font-size:60px;""> </div>","null","html-keyboard-response","160","758184","0.0-32.0-2.14","","","fixation_2","","","","","",""
"null","img_4.bmp","null","image-keyboard-response","161","759186","0.0-32.0-3.14","","","img_on","","","","","",""
"null","<div style=""font-size:60px;""> </div>","null","html-keyboard-response","162","759487","0.0-32.0-4.14","","","fixation_3","","","","","",""
"null","","null","html-keyboard-response","163","759493","0.0-32.0-5.14","","","test","leftarrow","0","1","FALSE","FALSE",""
"null","<div style=""font-size:60px;""> </div>","null","html-keyboard-response","164","759794","0.0-32.0-6.14","","","fixation_4","","","","","",""
"431.8999999910593","arrows.png","37","image-keyboard-response","165","760228","0.0-32.0-7.14","","","test","leftarrow","0","1","FALSE","FALSE","true"
"null","<p style=""color: green; font-size:300%;"">correct: $2.50</p>","null","html-keyboard-response","166","761480","0.0-32.0-8.14","","","","","","","","",""
"null","<div style=""font-size:60px;""> </div>","null","html-keyboard-response","167","763033","0.0-32.0-0.15","","","fixation_1","","","","","",""
"null","","null","image-keyboard-response","168","763040","0.0-32.0-1.15","","","test","uparrow","1","1","FALSE","FALSE",""
"null","<div style=""font-size:60px;""> </div>","null","html-keyboard-response","169","763343","0.0-32.0-2.15","","","fixation_2","","","","","",""
"null","img_1.bmp","null","image-keyboard-response","170","764347","0.0-32.0-3.15","","","img_on","","","","","",""
"null","<div style=""font-size:60px;""> </div>","null","html-keyboard-response","171","764648","0.0-32.0-4.15","","","fixation_3","","","","","",""
"null","","null","html-keyboard-response","172","764655","0.0-32.0-5.15","","","test","uparrow","1","1","FALSE","FALSE",""
"null","<div style=""font-size:60px;""> </div>","null","html-keyboard-response","173","764958","0.0-32.0-6.15","","","fixation_4","","","","","",""
"577.5999999940395","arrows.png","38","image-keyboard-response","174","765537","0.0-32.0-7.15","","","test","uparrow","1","1","FALSE","FALSE","true"
"null","<p style=""color: green; font-size:300%;"">correct: $7.50</p>","null","html-keyboard-response","175","766789","0.0-32.0-8.15","","","","","","","","",""
"null","<div style=""font-size:60px;""> </div>","null","html-keyboard-response","176","767594","0.0-32.0-0.16","","","fixation_1","","","","","",""
"null","","null","image-keyboard-response","177","767601","0.0-32.0-1.16","","","test","uparrow","1","1","FALSE","FALSE",""
"null","<div style=""font-size:60px;""> </div>","null","html-keyboard-response","178","767902","0.0-32.0-2.16","","","fixation_2","","","","","",""
"null","img_1.bmp","null","image-keyboard-response","179","768904","0.0-32.0-3.16","","","img_on","","","","","",""
"null","<div style=""font-size:60px;""> </div>","null","html-keyboard-response","180","769206","0.0-32.0-4.16","","","fixation_3","","","","","",""
"null","","null","html-keyboard-response","181","769211","0.0-32.0-5.16","","","test","uparrow","1","1","FALSE","FALSE",""
"null","<div style=""font-size:60px;""> </div>","null","html-keyboard-response","182","769514","0.0-32.0-6.16","","","fixation_4","","","","","",""
"491.09999999403954","arrows.png","38","image-keyboard-response","183","770007","0.0-32.0-7.16","","","test","uparrow","1","1","FALSE","FALSE","true"
"null","<p style=""color: green; font-size:300%;"">correct: $7.50</p>","null","html-keyboard-response","184","771258","0.0-32.0-8.16","","","","","","","","",""
"null","<div style=""font-size:60px;""> </div>","null","html-keyboard-response","185","772561","0.0-32.0-0.17","","","fixation_1","","","","","",""
"null","","null","image-keyboard-response","186","772568","0.0-32.0-1.17","","","test","rightarrow","1","1","FALSE","FALSE",""
"null","<div style=""font-size:60px;""> </div>","null","html-keyboard-response","187","772870","0.0-32.0-2.17","","","fixation_2","","","","","",""
"null","img_2.bmp","null","image-keyboard-response","188","773887","0.0-32.0-3.17","","","img_on","","","","","",""
"null","<div style=""font-size:60px;""> </div>","null","html-keyboard-response","189","774190","0.0-32.0-4.17","","","fixation_3","","","","","",""
"null","","null","html-keyboard-response","190","774196","0.0-32.0-5.17","","","test","rightarrow","1","1","FALSE","FALSE",""
"null","<div style=""font-size:60px;""> </div>","null","html-keyboard-response","191","774498","0.0-32.0-6.17","","","fixation_4","","","","","",""
"633.0999999940395","arrows.png","39","image-keyboard-response","192","775132","0.0-32.0-7.17","","","test","rightarrow","1","1","FALSE","FALSE","true"
"null","<p style=""color: green; font-size:300%;"">correct: $7.50</p>","null","html-keyboard-response","193","776385","0.0-32.0-8.17","","","","","","","","",""
"null","<div style=""font-size:60px;""> </div>","null","html-keyboard-response","194","777687","0.0-32.0-0.18","","","fixation_1","","","","","",""
"null","","null","image-keyboard-response","195","777694","0.0-32.0-1.18","","","test","leftarrow","0","1","FALSE","FALSE",""
"null","<div style=""font-size:60px;""> </div>","null","html-keyboard-response","196","777995","0.0-32.0-2.18","","","fixation_2","","","","","",""
"null","img_4.bmp","null","image-keyboard-response","197","778999","0.0-32.0-3.18","","","img_on","","","","","",""
"null","<div style=""font-size:60px;""> </div>","null","html-keyboard-response","198","779301","0.0-32.0-4.18","","","fixation_3","","","","","",""
"null","","null","html-keyboard-response","199","779307","0.0-32.0-5.18","","","test","leftarrow","0","1","FALSE","FALSE",""
"null","<div style=""font-size:60px;""> </div>","null","html-keyboard-response","200","779609","0.0-32.0-6.18","","","fixation_4","","","","","",""
"508.40000000596046","arrows.png","37","image-keyboard-response","201","780119","0.0-32.0-7.18","","","test","leftarrow","0","1","FALSE","FALSE","true"
"null","<p style=""color: green; font-size:300%;"">correct: $2.50</p>","null","html-keyboard-response","202","781371","0.0-32.0-8.18","","","","","","","","",""
"null","<div style=""font-size:60px;""> </div>","null","html-keyboard-response","203","782674","0.0-32.0-0.19","","","fixation_1","","","","","",""
"null","switch_cue.png","null","image-keyboard-response","204","783677","0.0-32.0-1.19","","","test","downarrow","0","1","TRUE","TRUE",""
"null","<div style=""font-size:60px;""> </div>","null","html-keyboard-response","205","783978","0.0-32.0-2.19","","","fixation_2","","","","","",""
"null","img_3.bmp","null","image-keyboard-response","206","784988","0.0-32.0-3.19","","","img_on","","","","","",""
"null","<div style=""font-size:60px;""> </div>","null","html-keyboard-response","207","785290","0.0-32.0-4.19","","","fixation_3","","","","","",""
"null","<img src=""CC1.png"" width=200 height=200/>","null","html-keyboard-response","208","786294","0.0-32.0-5.19","","","test","downarrow","0","1","TRUE","TRUE",""
"null","<div style=""font-size:60px;""> </div>","null","html-keyboard-response","209","786596","0.0-32.0-6.19","","","fixation_4","","","","","",""
"402.90000000596046","arrows.png","40","image-keyboard-response","210","787000","0.0-32.0-7.19","","","test","downarrow","0","1","TRUE","TRUE","true"
"null","<p style=""color: green; font-size:300%;"">correct: $2.50</p>","null","html-keyboard-response","211","788253","0.0-32.0-8.19","","","","","","","","",""
"null","<div style=""font-size:60px;""> </div>","null","html-keyboard-response","212","789305","0.0-32.0-0.20","","","fixation_1","","","","","",""
"null","switch_cue.png","null","image-keyboard-response","213","790308","0.0-32.0-1.20","","","test","uparrow","0","2","TRUE","TRUE",""
"null","<div style=""font-size:60px;""> </div>","null","html-keyboard-response","214","790610","0.0-32.0-2.20","","","fixation_2","","","","","",""
"null","img_4.bmp","null","image-keyboard-response","215","791612","0.0-32.0-3.20","","","img_on","","","","","",""
"null","<div style=""font-size:60px;""> </div>","null","html-keyboard-response","216","791924","0.0-32.0-4.20","","","fixation_3","","","","","",""
"null","<img src=""CC2.png"" width=200 height=200/>","null","html-keyboard-response","217","792926","0.0-32.0-5.20","","","test","uparrow","0","2","TRUE","TRUE",""
"null","<div style=""font-size:60px;""> </div>","null","html-keyboard-response","218","793228","0.0-32.0-6.20","","","fixation_4","","","","","",""
"578.5","arrows.png","39","image-keyboard-response","219","793808","0.0-32.0-7.20","","","test","uparrow","0","2","TRUE","TRUE","false"
"null","<p style=""color: red; font-size:300%;"">incorrect: $0</p>","null","html-keyboard-response","220","795060","0.0-32.0-8.20","","","","","","","","",""
"null","<div style=""font-size:60px;""> </div>","null","html-keyboard-response","221","795862","0.0-32.0-0.21","","","fixation_1","","","","","",""
"null","","null","image-keyboard-response","222","795869","0.0-32.0-1.21","","","test","downarrow","1","2","TRUE","FALSE",""
"null","<div style=""font-size:60px;""> </div>","null","html-keyboard-response","223","796170","0.0-32.0-2.21","","","fixation_2","","","","","",""
"null","img_2.bmp","null","image-keyboard-response","224","797172","0.0-32.0-3.21","","","img_on","","","","","",""
"null","<div style=""font-size:60px;""> </div>","null","html-keyboard-response","225","797474","0.0-32.0-4.21","","","fixation_3","","","","","",""
"null","<img src=""CC2.png"" width=200 height=200/>","null","html-keyboard-response","226","798476","0.0-32.0-5.21","","","test","downarrow","1","2","TRUE","FALSE",""
"null","<div style=""font-size:60px;""> </div>","null","html-keyboard-response","227","798778","0.0-32.0-6.21","","","fixation_4","","","","","",""
"349.90000000596046","arrows.png","37","image-keyboard-response","228","799130","0.0-32.0-7.21","","","test","downarrow","1","2","TRUE","FALSE","false"
"null","<p style=""color: red; font-size:300%;"">incorrect: $0</p>","null","html-keyboard-response","229","800382","0.0-32.0-8.21","","","","","","","","",""
"null","<div style=""font-size:60px;""> </div>","null","html-keyboard-response","230","801435","0.0-32.0-0.22","","","fixation_1","","","","","",""
"null","","null","image-keyboard-response","231","801442","0.0-32.0-1.22","","","test","leftarrow","1","2","TRUE","FALSE",""
"null","<div style=""font-size:60px;""> </div>","null","html-keyboard-response","232","801744","0.0-32.0-2.22","","","fixation_2","","","","","",""
"null","img_3.bmp","null","image-keyboard-response","233","802746","0.0-32.0-3.22","","","img_on","","","","","",""
"null","<div style=""font-size:60px;""> </div>","null","html-keyboard-response","234","803049","0.0-32.0-4.22","","","fixation_3","","","","","",""
"null","<img src=""CC2.png"" width=200 height=200/>","null","html-keyboard-response","235","804053","0.0-32.0-5.22","","","test","leftarrow","1","2","TRUE","FALSE",""
"null","<div style=""font-size:60px;""> </div>","null","html-keyboard-response","236","804355","0.0-32.0-6.22","","","fixation_4","","","","","",""
"322.29999999701977","arrows.png","39","image-keyboard-response","237","804679","0.0-32.0-7.22","","","test","leftarrow","1","2","TRUE","FALSE","false"
"null","<p style=""color: red; font-size:300%;"">incorrect: $0</p>","null","html-keyboard-response","238","805933","0.0-32.0-8.22","","","","","","","","",""
"null","<div style=""font-size:60px;""> </div>","null","html-keyboard-response","239","806485","0.0-32.0-0.23","","","fixation_1","","","","","",""
"null","","null","image-keyboard-response","240","806492","0.0-32.0-1.23","","","test","rightarrow","0","2","TRUE","FALSE",""
"null","<div style=""font-size:60px;""> </div>","null","html-keyboard-response","241","806794","0.0-32.0-2.23","","","fixation_2","","","","","",""
"null","img_1.bmp","null","image-keyboard-response","242","807796","0.0-32.0-3.23","","","img_on","","","","","",""
"null","<div style=""font-size:60px;""> </div>","null","html-keyboard-response","243","808098","0.0-32.0-4.23","","","fixation_3","","","","","",""
"null","<img src=""CC2.png"" width=200 height=200/>","null","html-keyboard-response","244","809104","0.0-32.0-5.23","","","test","rightarrow","0","2","TRUE","FALSE",""
"null","<div style=""font-size:60px;""> </div>","null","html-keyboard-response","245","809406","0.0-32.0-6.23","","","fixation_4","","","","","",""
"402.40000000596046","arrows.png","39","image-keyboard-response","246","809810","0.0-32.0-7.23","","","test","rightarrow","0","2","TRUE","FALSE","true"
"null","<p style=""color: green; font-size:300%;"">correct: $2.50</p>","null","html-keyboard-response","247","811064","0.0-32.0-8.23","","","","","","","","",""
"null","<div style=""font-size:60px;""> </div>","null","html-keyboard-response","248","811616","0.0-32.0-0.24","","","fixation_1","","","","","",""
"null","","null","image-keyboard-response","249","811621","0.0-32.0-1.24","","","test","leftarrow","1","2","FALSE","FALSE",""
"null","<div style=""font-size:60px;""> </div>","null","html-keyboard-response","250","811922","0.0-32.0-2.24","","","fixation_2","","","","","",""
"null","img_3.bmp","null","image-keyboard-response","251","812925","0.0-32.0-3.24","","","img_on","","","","","",""
"null","<div style=""font-size:60px;""> </div>","null","html-keyboard-response","252","813226","0.0-32.0-4.24","","","fixation_3","","","","","",""
"null","","null","html-keyboard-response","253","813232","0.0-32.0-5.24","","","test","leftarrow","1","2","FALSE","FALSE",""
"null","<div style=""font-size:60px;""> </div>","null","html-keyboard-response","254","813534","0.0-32.0-6.24","","","fixation_4","","","","","",""
"1236.1000000089407","arrows.png","37","image-keyboard-response","255","814772","0.0-32.0-7.24","","","test","leftarrow","1","2","FALSE","FALSE","true"
"null","<p style=""color: green; font-size:300%;"">correct: $7.50</p>","null","html-keyboard-response","256","816026","0.0-32.0-8.24","","","","","","","","",""
"null","<div style=""font-size:60px;""> </div>","null","html-keyboard-response","257","817079","0.0-32.0-0.25","","","fixation_1","","","","","",""
"null","","null","image-keyboard-response","258","817085","0.0-32.0-1.25","","","test","downarrow","1","2","FALSE","FALSE",""
"null","<div style=""font-size:60px;""> </div>","null","html-keyboard-response","259","817386","0.0-32.0-2.25","","","fixation_2","","","","","",""
"null","img_2.bmp","null","image-keyboard-response","260","818388","0.0-32.0-3.25","","","img_on","","","","","",""
"null","<div style=""font-size:60px;""> </div>","null","html-keyboard-response","261","818690","0.0-32.0-4.25","","","fixation_3","","","","","",""
"null","","null","html-keyboard-response","262","818697","0.0-32.0-5.25","","","test","downarrow","1","2","FALSE","FALSE",""
"null","<div style=""font-size:60px;""> </div>","null","html-keyboard-response","263","818998","0.0-32.0-6.25","","","fixation_4","","","","","",""
"758.5","arrows.png","38","image-keyboard-response","264","819757","0.0-32.0-7.25","","","test","downarrow","1","2","FALSE","FALSE","false"
"null","<p style=""color: red; font-size:300%;"">incorrect: $0</p>","null","html-keyboard-response","265","821009","0.0-32.0-8.25","","","","","","","","",""
"null","<div style=""font-size:60px;""> </div>","null","html-keyboard-response","266","822062","0.0-32.0-0.26","","","fixation_1","","","","","",""
"null","","null","image-keyboard-response","267","822068","0.0-32.0-1.26","","","test","uparrow","0","2","FALSE","FALSE",""
"null","<div style=""font-size:60px;""> </div>","null","html-keyboard-response","268","822369","0.0-32.0-2.26","","","fixation_2","","","","","",""
"null","img_4.bmp","null","image-keyboard-response","269","823371","0.0-32.0-3.26","","","img_on","","","","","",""
"null","<div style=""font-size:60px;""> </div>","null","html-keyboard-response","270","823680","0.0-32.0-4.26","","","fixation_3","","","","","",""
"null","","null","html-keyboard-response","271","823686","0.0-32.0-5.26","","","test","uparrow","0","2","FALSE","FALSE",""
"null","<div style=""font-size:60px;""> </div>","null","html-keyboard-response","272","823987","0.0-32.0-6.26","","","fixation_4","","","","","",""
"855.7999999970198","arrows.png","38","image-keyboard-response","273","824845","0.0-32.0-7.26","","","test","uparrow","0","2","FALSE","FALSE","true"
"null","<p style=""color: green; font-size:300%;"">correct: $2.50</p>","null","html-keyboard-response","274","826106","0.0-32.0-8.26","","","","","","","","",""
"null","<div style=""font-size:60px;""> </div>","null","html-keyboard-response","275","826908","0.0-32.0-0.27","","","fixation_1","","","","","",""
"null","","null","image-keyboard-response","276","826915","0.0-32.0-1.27","","","test","rightarrow","0","2","FALSE","FALSE",""
"null","<div style=""font-size:60px;""> </div>","null","html-keyboard-response","277","827217","0.0-32.0-2.27","","","fixation_2","","","","","",""
"null","img_1.bmp","null","image-keyboard-response","278","828219","0.0-32.0-3.27","","","img_on","","","","","",""
"null","<div style=""font-size:60px;""> </div>","null","html-keyboard-response","279","828521","0.0-32.0-4.27","","","fixation_3","","","","","",""
"null","","null","html-keyboard-response","280","828527","0.0-32.0-5.27","","","test","rightarrow","0","2","FALSE","FALSE",""
"null","<div style=""font-size:60px;""> </div>","null","html-keyboard-response","281","828829","0.0-32.0-6.27","","","fixation_4","","","","","",""
"616.7999999970198","arrows.png","37","image-keyboard-response","282","829447","0.0-32.0-7.27","","","test","rightarrow","0","2","FALSE","FALSE","false"
"null","<p style=""color: red; font-size:300%;"">incorrect: $0</p>","null","html-keyboard-response","283","830699","0.0-32.0-8.27","","","","","","","","",""
"null","<div style=""font-size:60px;""> </div>","null","html-keyboard-response","284","831258","0.0-32.0-0.28","","","fixation_1","","","","","",""
"null","","null","image-keyboard-response","285","831263","0.0-32.0-1.28","","","test","uparrow","0","2","FALSE","FALSE",""
"null","<div style=""font-size:60px;""> </div>","null","html-keyboard-response","286","831565","0.0-32.0-2.28","","","fixation_2","","","","","",""
"null","img_4.bmp","null","image-keyboard-response","287","832566","0.0-32.0-3.28","","","img_on","","","","","",""
"null","<div style=""font-size:60px;""> </div>","null","html-keyboard-response","288","832867","0.0-32.0-4.28","","","fixation_3","","","","","",""
"null","","null","html-keyboard-response","289","832872","0.0-32.0-5.28","","","test","uparrow","0","2","FALSE","FALSE",""
"null","<div style=""font-size:60px;""> </div>","null","html-keyboard-response","290","833174","0.0-32.0-6.28","","","fixation_4","","","","","",""
"561.1000000089407","arrows.png","38","image-keyboard-response","291","833736","0.0-32.0-7.28","","","test","uparrow","0","2","FALSE","FALSE","true"
"null","<p style=""color: green; font-size:300%;"">correct: $2.50</p>","null","html-keyboard-response","292","834990","0.0-32.0-8.28","","","","","","","","",""
"null","<div style=""font-size:60px;""> </div>","null","html-keyboard-response","293","835798","0.0-32.0-0.29","","","fixation_1","","","","","",""
"null","","null","image-keyboard-response","294","835804","0.0-32.0-1.29","","","test","rightarrow","0","2","FALSE","FALSE",""
"null","<div style=""font-size:60px;""> </div>","null","html-keyboard-response","295","836106","0.0-32.0-2.29","","","fixation_2","","","","","",""
"null","img_1.bmp","null","image-keyboard-response","296","837108","0.0-32.0-3.29","","","img_on","","","","","",""
"null","<div style=""font-size:60px;""> </div>","null","html-keyboard-response","297","837410","0.0-32.0-4.29","","","fixation_3","","","","","",""
"null","","null","html-keyboard-response","298","837416","0.0-32.0-5.29","","","test","rightarrow","0","2","FALSE","FALSE",""
"null","<div style=""font-size:60px;""> </div>","null","html-keyboard-response","299","837718","0.0-32.0-6.29","","","fixation_4","","","","","",""
"682.8000000119209","arrows.png","39","image-keyboard-response","300","838403","0.0-32.0-7.29","","","test","rightarrow","0","2","FALSE","FALSE","true"
"null","<p style=""color: green; font-size:300%;"">correct: $2.50</p>","null","html-keyboard-response","301","839655","0.0-32.0-8.29","","","","","","","","",""
"null","<div style=""font-size:60px;""> </div>","null","html-keyboard-response","302","841207","0.0-32.0-0.30","","","fixation_1","","","","","",""
"null","","null","image-keyboard-response","303","841215","0.0-32.0-1.30","","","test","downarrow","1","2","FALSE","FALSE",""
"null","<div style=""font-size:60px;""> </div>","null","html-keyboard-response","304","841517","0.0-32.0-2.30","","","fixation_2","","","","","",""
"null","img_2.bmp","null","image-keyboard-response","305","842519","0.0-32.0-3.30","","","img_on","","","","","",""
"null","<div style=""font-size:60px;""> </div>","null","html-keyboard-response","306","842821","0.0-32.0-4.30","","","fixation_3","","","","","",""
"null","","null","html-keyboard-response","307","842828","0.0-32.0-5.30","","","test","downarrow","1","2","FALSE","FALSE",""
"null","<div style=""font-size:60px;""> </div>","null","html-keyboard-response","308","843130","0.0-32.0-6.30","","","fixation_4","","","","","",""
"916","arrows.png","37","image-keyboard-response","309","844046","0.0-32.0-7.30","","","test","downarrow","1","2","FALSE","FALSE","false"
"null","<p style=""color: red; font-size:300%;"">incorrect: $0</p>","null","html-keyboard-response","310","845299","0.0-32.0-8.30","","","","","","","","",""
"null","<div style=""font-size:60px;""> </div>","null","html-keyboard-response","311","846851","0.0-32.0-0.31","","","fixation_1","","","","","",""
"null","","null","image-keyboard-response","312","846859","0.0-32.0-1.31","","","test","leftarrow","1","2","FALSE","FALSE",""
"null","<div style=""font-size:60px;""> </div>","null","html-keyboard-response","313","847161","0.0-32.0-2.31","","","fixation_2","","","","","",""
"null","img_3.bmp","null","image-keyboard-response","314","848162","0.0-32.0-3.31","","","img_on","","","","","",""
"null","<div style=""font-size:60px;""> </div>","null","html-keyboard-response","315","848473","0.0-32.0-4.31","","","fixation_3","","","","","",""
"null","","null","html-keyboard-response","316","848479","0.0-32.0-5.31","","","test","leftarrow","1","2","FALSE","FALSE",""
"null","<div style=""font-size:60px;""> </div>","null","html-keyboard-response","317","848781","0.0-32.0-6.31","","","fixation_4","","","","","",""
"607.2000000029802","arrows.png","39","image-keyboard-response","318","849390","0.0-32.0-7.31","","","test","leftarrow","1","2","FALSE","FALSE","false"
"null","<p style=""color: red; font-size:300%;"">incorrect: $0</p>","null","html-keyboard-response","319","850642","0.0-32.0-8.31","","","","","","","","",""
"null","<div style=""font-size:60px;""> </div>","null","html-keyboard-response","320","851445","0.0-32.0-0.32","","","fixation_1","","","","","",""
"null","","null","image-keyboard-response","321","851451","0.0-32.0-1.32","","","test","downarrow","1","2","FALSE","FALSE",""
"null","<div style=""font-size:60px;""> </div>","null","html-keyboard-response","322","851754","0.0-32.0-2.32","","","fixation_2","","","","","",""
"null","img_2.bmp","null","image-keyboard-response","323","852756","0.0-32.0-3.32","","","img_on","","","","","",""
"null","<div style=""font-size:60px;""> </div>","null","html-keyboard-response","324","853057","0.0-32.0-4.32","","","fixation_3","","","","","",""
"null","","null","html-keyboard-response","325","853064","0.0-32.0-5.32","","","test","downarrow","1","2","FALSE","FALSE",""
"null","<div style=""font-size:60px;""> </div>","null","html-keyboard-response","326","853365","0.0-32.0-6.32","","","fixation_4","","","","","",""
"862.9000000059605","arrows.png","38","image-keyboard-response","327","854229","0.0-32.0-7.32","","","test","downarrow","1","2","FALSE","FALSE","false"
"null","<p style=""color: red; font-size:300%;"">incorrect: $0</p>","null","html-keyboard-response","328","855480","0.0-32.0-8.32","","","","","","","","",""
"null","<div style=""font-size:60px;""> </div>","null","html-keyboard-response","329","856533","0.0-32.0-0.33","","","fixation_1","","","","","",""
"null","","null","image-keyboard-response","330","856540","0.0-32.0-1.33","","","test","leftarrow","1","2","FALSE","FALSE",""
"null","<div style=""font-size:60px;""> </div>","null","html-keyboard-response","331","856842","0.0-32.0-2.33","","","fixation_2","","","","","",""
"null","img_3.bmp","null","image-keyboard-response","332","857851","0.0-32.0-3.33","","","img_on","","","","","",""
"null","<div style=""font-size:60px;""> </div>","null","html-keyboard-response","333","858153","0.0-32.0-4.33","","","fixation_3","","","","","",""
"null","","null","html-keyboard-response","334","858160","0.0-32.0-5.33","","","test","leftarrow","1","2","FALSE","FALSE",""
"null","<div style=""font-size:60px;""> </div>","null","html-keyboard-response","335","858462","0.0-32.0-6.33","","","fixation_4","","","","","",""
"744.9000000059605","arrows.png","39","image-keyboard-response","336","859208","0.0-32.0-7.33","","","test","leftarrow","1","2","FALSE","FALSE","false"
"null","<p style=""color: red; font-size:300%;"">incorrect: $0</p>","null","html-keyboard-response","337","860459","0.0-32.0-8.33","","","","","","","","",""
"null","<div style=""font-size:60px;""> </div>","null","html-keyboard-response","338","861262","0.0-32.0-0.34","","","fixation_1","","","","","",""
"null","","null","image-keyboard-response","339","861269","0.0-32.0-1.34","","","test","rightarrow","0","2","FALSE","FALSE",""
"null","<div style=""font-size:60px;""> </div>","null","html-keyboard-response","340","861570","0.0-32.0-2.34","","","fixation_2","","","","","",""
"null","img_1.bmp","null","image-keyboard-response","341","862574","0.0-32.0-3.34","","","img_on","","","","","",""
"null","<div style=""font-size:60px;""> </div>","null","html-keyboard-response","342","862875","0.0-32.0-4.34","","","fixation_3","","","","","",""
"null","","null","html-keyboard-response","343","862880","0.0-32.0-5.34","","","test","rightarrow","0","2","FALSE","FALSE",""
"null","<div style=""font-size:60px;""> </div>","null","html-keyboard-response","344","863181","0.0-32.0-6.34","","","fixation_4","","","","","",""
"726.3000000119209","arrows.png","39","image-keyboard-response","345","863909","0.0-32.0-7.34","","","test","rightarrow","0","2","FALSE","FALSE","true"
"null","<p style=""color: green; font-size:300%;"">correct: $2.50</p>","null","html-keyboard-response","346","865161","0.0-32.0-8.34","","","","","","","","",""
"null","<div style=""font-size:60px;""> </div>","null","html-keyboard-response","347","865964","0.0-32.0-0.35","","","fixation_1","","","","","",""
"null","","null","image-keyboard-response","348","865970","0.0-32.0-1.35","","","test","uparrow","0","2","FALSE","FALSE",""
"null","<div style=""font-size:60px;""> </div>","null","html-keyboard-response","349","866271","0.0-32.0-2.35","","","fixation_2","","","","","",""
"null","img_4.bmp","null","image-keyboard-response","350","867274","0.0-32.0-3.35","","","img_on","","","","","",""
"null","<div style=""font-size:60px;""> </div>","null","html-keyboard-response","351","867575","0.0-32.0-4.35","","","fixation_3","","","","","",""
"null","","null","html-keyboard-response","352","867580","0.0-32.0-5.35","","","test","uparrow","0","2","FALSE","FALSE",""
"null","<div style=""font-size:60px;""> </div>","null","html-keyboard-response","353","867882","0.0-32.0-6.35","","","fixation_4","","","","","",""
"550.2999999970198","arrows.png","40","image-keyboard-response","354","868434","0.0-32.0-7.35","","","test","uparrow","0","2","FALSE","FALSE","false"
"null","<p style=""color: red; font-size:300%;"">incorrect: $0</p>","null","html-keyboard-response","355","869686","0.0-32.0-8.35","","","","","","","","",""
"null","<div style=""font-size:60px;""> </div>","null","html-keyboard-response","356","870989","0.0-32.0-0.36","","","fixation_1","","","","","",""
"null","","null","image-keyboard-response","357","870996","0.0-32.0-1.36","","","test","downarrow","1","2","FALSE","FALSE",""
"null","<div style=""font-size:60px;""> </div>","null","html-keyboard-response","358","871297","0.0-32.0-2.36","","","fixation_2","","","","","",""
"null","img_2.bmp","null","image-keyboard-response","359","872299","0.0-32.0-3.36","","","img_on","","","","","",""
"null","<div style=""font-size:60px;""> </div>","null","html-keyboard-response","360","872601","0.0-32.0-4.36","","","fixation_3","","","","","",""
"null","","null","html-keyboard-response","361","872607","0.0-32.0-5.36","","","test","downarrow","1","2","FALSE","FALSE",""
"null","<div style=""font-size:60px;""> </div>","null","html-keyboard-response","362","872910","0.0-32.0-6.36","","","fixation_4","","","","","",""
"515.5","arrows.png","40","image-keyboard-response","363","873427","0.0-32.0-7.36","","","test","downarrow","1","2","FALSE","FALSE","true"
"null","<p style=""color: green; font-size:300%;"">correct: $7.50</p>","null","html-keyboard-response","364","874681","0.0-32.0-8.36","","","","","","","","",""
"null","<div style=""font-size:60px;""> </div>","null","html-keyboard-response","365","876234","0.0-32.0-0.37","","","fixation_1","","","","","",""
"null","","null","image-keyboard-response","366","876240","0.0-32.0-1.37","","","test","rightarrow","0","2","FALSE","FALSE",""
"null","<div style=""font-size:60px;""> </div>","null","html-keyboard-response","367","876542","0.0-32.0-2.37","","","fixation_2","","","","","",""
"null","img_1.bmp","null","image-keyboard-response","368","877544","0.0-32.0-3.37","","","img_on","","","","","",""
"null","<div style=""font-size:60px;""> </div>","null","html-keyboard-response","369","877846","0.0-32.0-4.37","","","fixation_3","","","","","",""
"null","","null","html-keyboard-response","370","877853","0.0-32.0-5.37","","","test","rightarrow","0","2","FALSE","FALSE",""
"null","<div style=""font-size:60px;""> </div>","null","html-keyboard-response","371","878155","0.0-32.0-6.37","","","fixation_4","","","","","",""
"742.2999999970198","arrows.png","39","image-keyboard-response","372","878898","0.0-32.0-7.37","","","test","rightarrow","0","2","FALSE","FALSE","true"
"null","<p style=""color: green; font-size:300%;"">correct: $2.50</p>","null","html-keyboard-response","373","880151","0.0-32.0-8.37","","","","","","","","",""
"null","<div style=""font-size:60px;""> </div>","null","html-keyboard-response","374","881704","0.0-32.0-0.38","","","fixation_1","","","","","",""
"null","","null","image-keyboard-response","375","881710","0.0-32.0-1.38","","","test","uparrow","0","2","FALSE","FALSE",""
"null","<div style=""font-size:60px;""> </div>","null","html-keyboard-response","376","882011","0.0-32.0-2.38","","","fixation_2","","","","","",""
"null","img_4.bmp","null","image-keyboard-response","377","883014","0.0-32.0-3.38","","","img_on","","","","","",""
"null","<div style=""font-size:60px;""> </div>","null","html-keyboard-response","378","883316","0.0-32.0-4.38","","","fixation_3","","","","","",""
"null","","null","html-keyboard-response","379","883324","0.0-32.0-5.38","","","test","uparrow","0","2","FALSE","FALSE",""
"null","<div style=""font-size:60px;""> </div>","null","html-keyboard-response","380","883626","0.0-32.0-6.38","","","fixation_4","","","","","",""
"558.6000000089407","arrows.png","38","image-keyboard-response","381","884186","0.0-32.0-7.38","","","test","uparrow","0","2","FALSE","FALSE","true"
"null","<p style=""color: green; font-size:300%;"">correct: $2.50</p>","null","html-keyboard-response","382","885438","0.0-32.0-8.38","","","","","","","","",""
"null","<div style=""font-size:60px;""> </div>","null","html-keyboard-response","383","886991","0.0-32.0-0.39","","","fixation_1","","","","","",""
"null","switch_cue.png","null","image-keyboard-response","384","887995","0.0-32.0-1.39","","","test","leftarrow","1","2","TRUE","TRUE",""
"null","<div style=""font-size:60px;""> </div>","null","html-keyboard-response","385","888296","0.0-32.0-2.39","","","fixation_2","","","","","",""
"null","img_3.bmp","null","image-keyboard-response","386","889299","0.0-32.0-3.39","","","img_on","","","","","",""
"null","<div style=""font-size:60px;""> </div>","null","html-keyboard-response","387","889600","0.0-32.0-4.39","","","fixation_3","","","","","",""
"null","<img src=""CC2.png"" width=200 height=200/>","null","html-keyboard-response","388","890601","0.0-32.0-5.39","","","test","leftarrow","1","2","TRUE","TRUE",""
"null","<div style=""font-size:60px;""> </div>","null","html-keyboard-response","389","890904","0.0-32.0-6.39","","","fixation_4","","","","","",""
"362.40000000596046","arrows.png","40","image-keyboard-response","390","891270","0.0-32.0-7.39","","","test","leftarrow","1","2","TRUE","TRUE","false"
"null","<p style=""color: red; font-size:300%;"">incorrect: $0</p>","null","html-keyboard-response","391","892544","0.0-32.0-8.39","","","","","","","","",""
"null","<div style=""font-size:60px;""> </div>","null","html-keyboard-response","392","893597","0.0-32.0-0.40","","","fixation_1","","","","","",""
"null","switch_cue.png","null","image-keyboard-response","393","894599","0.0-32.0-1.40","","","test","downarrow","0","1","TRUE","TRUE",""
"null","<div style=""font-size:60px;""> </div>","null","html-keyboard-response","394","894901","0.0-32.0-2.40","","","fixation_2","","","","","",""
"null","img_3.bmp","null","image-keyboard-response","395","895904","0.0-32.0-3.40","","","img_on","","","","","",""
"null","<div style=""font-size:60px;""> </div>","null","html-keyboard-response","396","896206","0.0-32.0-4.40","","","fixation_3","","","","","",""
"null","<img src=""CC1.png"" width=200 height=200/>","null","html-keyboard-response","397","897208","0.0-32.0-5.40","","","test","downarrow","0","1","TRUE","TRUE",""
"null","<div style=""font-size:60px;""> </div>","null","html-keyboard-response","398","897511","0.0-32.0-6.40","","","fixation_4","","","","","",""
"924.7000000029802","arrows.png","38","image-keyboard-response","399","898437","0.0-32.0-7.40","","","test","downarrow","0","1","TRUE","TRUE","false"
"null","<p style=""color: red; font-size:300%;"">incorrect: $0</p>","null","html-keyboard-response","400","899688","0.0-32.0-8.40","","","","","","","","",""
"null","<div style=""font-size:60px;""> </div>","null","html-keyboard-response","401","900740","0.0-32.0-0.41","","","fixation_1","","","","","",""
"null","","null","image-keyboard-response","402","900747","0.0-32.0-1.41","","","test","uparrow","1","1","TRUE","FALSE",""
"null","<div style=""font-size:60px;""> </div>","null","html-keyboard-response","403","901049","0.0-32.0-2.41","","","fixation_2","","","","","",""
"null","img_1.bmp","null","image-keyboard-response","404","902050","0.0-32.0-3.41","","","img_on","","","","","",""
"null","<div style=""font-size:60px;""> </div>","null","html-keyboard-response","405","902353","0.0-32.0-4.41","","","fixation_3","","","","","",""
"null","<img src=""CC1.png"" width=200 height=200/>","null","html-keyboard-response","406","903356","0.0-32.0-5.41","","","test","uparrow","1","1","TRUE","FALSE",""
"null","<div style=""font-size:60px;""> </div>","null","html-keyboard-response","407","903660","0.0-32.0-6.41","","","fixation_4","","","","","",""
"633.5","arrows.png","39","image-keyboard-response","408","904295","0.0-32.0-7.41","","","test","uparrow","1","1","TRUE","FALSE","false"
"null","<p style=""color: red; font-size:300%;"">incorrect: $0</p>","null","html-keyboard-response","409","905548","0.0-32.0-8.41","","","","","","","","",""
"null","<div style=""font-size:60px;""> </div>","null","html-keyboard-response","410","906850","0.0-32.0-0.42","","","fixation_1","","","","","",""
"null","","null","image-keyboard-response","411","906857","0.0-32.0-1.42","","","test","rightarrow","1","1","TRUE","FALSE",""
"null","<div style=""font-size:60px;""> </div>","null","html-keyboard-response","412","907158","0.0-32.0-2.42","","","fixation_2","","","","","",""
"null","img_2.bmp","null","image-keyboard-response","413","908161","0.0-32.0-3.42","","","img_on","","","","","",""
"null","<div style=""font-size:60px;""> </div>","null","html-keyboard-response","414","908464","0.0-32.0-4.42","","","fixation_3","","","","","",""
"null","<img src=""CC1.png"" width=200 height=200/>","null","html-keyboard-response","415","909466","0.0-32.0-5.42","","","test","rightarrow","1","1","TRUE","FALSE",""
"null","<div style=""font-size:60px;""> </div>","null","html-keyboard-response","416","909768","0.0-32.0-6.42","","","fixation_4","","","","","",""
"376.79999999701977","arrows.png","39","image-keyboard-response","417","910147","0.0-32.0-7.42","","","test","rightarrow","1","1","TRUE","FALSE","true"
"null","<p style=""color: green; font-size:300%;"">correct: $7.50</p>","null","html-keyboard-response","418","911399","0.0-32.0-8.42","","","","","","","","",""
"null","<div style=""font-size:60px;""> </div>","null","html-keyboard-response","419","912952","0.0-32.0-0.43","","","fixation_1","","","","","",""
"null","","null","image-keyboard-response","420","912960","0.0-32.0-1.43","","","test","leftarrow","0","1","TRUE","FALSE",""
"null","<div style=""font-size:60px;""> </div>","null","html-keyboard-response","421","913262","0.0-32.0-2.43","","","fixation_2","","","","","",""
"null","img_4.bmp","null","image-keyboard-response","422","914279","0.0-32.0-3.43","","","img_on","","","","","",""
"null","<div style=""font-size:60px;""> </div>","null","html-keyboard-response","423","914581","0.0-32.0-4.43","","","fixation_3","","","","","",""
"null","<img src=""CC1.png"" width=200 height=200/>","null","html-keyboard-response","424","915585","0.0-32.0-5.43","","","test","leftarrow","0","1","TRUE","FALSE",""
"null","<div style=""font-size:60px;""> </div>","null","html-keyboard-response","425","915886","0.0-32.0-6.43","","","fixation_4","","","","","",""
"296.5","arrows.png","37","image-keyboard-response","426","916184","0.0-32.0-7.43","","","test","leftarrow","0","1","TRUE","FALSE","true"
"null","<p style=""color: green; font-size:300%;"">correct: $2.50</p>","null","html-keyboard-response","427","917436","0.0-32.0-8.43","","","","","","","","",""
"null","<div style=""font-size:60px;""> </div>","null","html-keyboard-response","428","918489","0.0-32.0-0.44","","","fixation_1","","","","","",""
"null","","null","image-keyboard-response","429","918496","0.0-32.0-1.44","","","test","rightarrow","1","1","FALSE","FALSE",""
"null","<div style=""font-size:60px;""> </div>","null","html-keyboard-response","430","918797","0.0-32.0-2.44","","","fixation_2","","","","","",""
"null","img_2.bmp","null","image-keyboard-response","431","919800","0.0-32.0-3.44","","","img_on","","","","","",""
"null","<div style=""font-size:60px;""> </div>","null","html-keyboard-response","432","920102","0.0-32.0-4.44","","","fixation_3","","","","","",""
"null","","null","html-keyboard-response","433","920107","0.0-32.0-5.44","","","test","rightarrow","1","1","FALSE","FALSE",""
"null","<div style=""font-size:60px;""> </div>","null","html-keyboard-response","434","920409","0.0-32.0-6.44","","","fixation_4","","","","","",""
"763.8999999910593","arrows.png","39","image-keyboard-response","435","921174","0.0-32.0-7.44","","","test","rightarrow","1","1","FALSE","FALSE","true"
"null","<p style=""color: green; font-size:300%;"">correct: $7.50</p>","null","html-keyboard-response","436","922426","0.0-32.0-8.44","","","","","","","","",""
"null","<div style=""font-size:60px;""> </div>","null","html-keyboard-response","437","923229","0.0-32.0-0.45","","","fixation_1","","","","","",""
"null","","null","image-keyboard-response","438","923235","0.0-32.0-1.45","","","test","downarrow","0","1","FALSE","FALSE",""
"null","<div style=""font-size:60px;""> </div>","null","html-keyboard-response","439","923537","0.0-32.0-2.45","","","fixation_2","","","","","",""
"null","img_3.bmp","null","image-keyboard-response","440","924541","0.0-32.0-3.45","","","img_on","","","","","",""
"null","<div style=""font-size:60px;""> </div>","null","html-keyboard-response","441","924855","0.0-32.0-4.45","","","fixation_3","","","","","",""
"null","","null","html-keyboard-response","442","924861","0.0-32.0-5.45","","","test","downarrow","0","1","FALSE","FALSE",""
"null","<div style=""font-size:60px;""> </div>","null","html-keyboard-response","443","925162","0.0-32.0-6.45","","","fixation_4","","","","","",""
"643.1000000089407","arrows.png","40","image-keyboard-response","444","925806","0.0-32.0-7.45","","","test","downarrow","0","1","FALSE","FALSE","true"
"null","<p style=""color: green; font-size:300%;"">correct: $2.50</p>","null","html-keyboard-response","445","927060","0.0-32.0-8.45","","","","","","","","",""
"null","<div style=""font-size:60px;""> </div>","null","html-keyboard-response","446","928362","0.0-32.0-0.46","","","fixation_1","","","","","",""
"null","","null","image-keyboard-response","447","928368","0.0-32.0-1.46","","","test","leftarrow","0","1","FALSE","FALSE",""
"null","<div style=""font-size:60px;""> </div>","null","html-keyboard-response","448","928671","0.0-32.0-2.46","","","fixation_2","","","","","",""
"null","img_4.bmp","null","image-keyboard-response","449","929673","0.0-32.0-3.46","","","img_on","","","","","",""
"null","<div style=""font-size:60px;""> </div>","null","html-keyboard-response","450","929976","0.0-32.0-4.46","","","fixation_3","","","","","",""
"null","","null","html-keyboard-response","451","929981","0.0-32.0-5.46","","","test","leftarrow","0","1","FALSE","FALSE",""
"null","<div style=""font-size:60px;""> </div>","null","html-keyboard-response","452","930283","0.0-32.0-6.46","","","fixation_4","","","","","",""
"959.0999999940395","arrows.png","37","image-keyboard-response","453","931244","0.0-32.0-7.46","","","test","leftarrow","0","1","FALSE","FALSE","true"
"null","<p style=""color: green; font-size:300%;"">correct: $2.50</p>","null","html-keyboard-response","454","932496","0.0-32.0-8.46","","","","","","","","",""
"null","<div style=""font-size:60px;""> </div>","null","html-keyboard-response","455","934051","0.0-32.0-0.47","","","fixation_1","","","","","",""
"null","","null","image-keyboard-response","456","934058","0.0-32.0-1.47","","","test","uparrow","1","1","FALSE","FALSE",""
"null","<div style=""font-size:60px;""> </div>","null","html-keyboard-response","457","934359","0.0-32.0-2.47","","","fixation_2","","","","","",""
"null","img_1.bmp","null","image-keyboard-response","458","935361","0.0-32.0-3.47","","","img_on","","","","","",""
"null","<div style=""font-size:60px;""> </div>","null","html-keyboard-response","459","935671","0.0-32.0-4.47","","","fixation_3","","","","","",""
"null","","null","html-keyboard-response","460","935677","0.0-32.0-5.47","","","test","uparrow","1","1","FALSE","FALSE",""
"null","<div style=""font-size:60px;""> </div>","null","html-keyboard-response","461","935980","0.0-32.0-6.47","","","fixation_4","","","","","",""
"653.2999999970198","arrows.png","38","image-keyboard-response","462","936634","0.0-32.0-7.47","","","test","uparrow","1","1","FALSE","FALSE","true"
"null","<p style=""color: green; font-size:300%;"">correct: $7.50</p>","null","html-keyboard-response","463","937889","0.0-32.0-8.47","","","","","","","","",""
"null","<div style=""font-size:60px;""> </div>","null","html-keyboard-response","464","939441","0.0-32.0-0.48","","","fixation_1","","","","","",""
"null","","null","image-keyboard-response","465","939448","0.0-32.0-1.48","","","test","downarrow","0","1","FALSE","FALSE",""
"null","<div style=""font-size:60px;""> </div>","null","html-keyboard-response","466","939750","0.0-32.0-2.48","","","fixation_2","","","","","",""
"null","img_3.bmp","null","image-keyboard-response","467","940758","0.0-32.0-3.48","","","img_on","","","","","",""
"null","<div style=""font-size:60px;""> </div>","null","html-keyboard-response","468","941064","0.0-32.0-4.48","","","fixation_3","","","","","",""
"null","","null","html-keyboard-response","469","941069","0.0-32.0-5.48","","","test","downarrow","0","1","FALSE","FALSE",""
"null","<div style=""font-size:60px;""> </div>","null","html-keyboard-response","470","941371","0.0-32.0-6.48","","","fixation_4","","","","","",""
"883.8999999910593","arrows.png","40","image-keyboard-response","471","942256","0.0-32.0-7.48","","","test","downarrow","0","1","FALSE","FALSE","true"
"null","<p style=""color: green; font-size:300%;"">correct: $2.50</p>","null","html-keyboard-response","472","943530","0.0-32.0-8.48","","","","","","","","",""
"null","<div style=""font-size:60px;""> </div>","null","html-keyboard-response","473","945082","0.0-32.0-0.49","","","fixation_1","","","","","",""
"null","","null","image-keyboard-response","474","945090","0.0-32.0-1.49","","","test","rightarrow","1","1","FALSE","FALSE",""
"null","<div style=""font-size:60px;""> </div>","null","html-keyboard-response","475","945391","0.0-32.0-2.49","","","fixation_2","","","","","",""
"null","img_2.bmp","null","image-keyboard-response","476","946396","0.0-32.0-3.49","","","img_on","","","","","",""
"null","<div style=""font-size:60px;""> </div>","null","html-keyboard-response","477","946697","0.0-32.0-4.49","","","fixation_3","","","","","",""
"null","","null","html-keyboard-response","478","946703","0.0-32.0-5.49","","","test","rightarrow","1","1","FALSE","FALSE",""
"null","<div style=""font-size:60px;""> </div>","null","html-keyboard-response","479","947004","0.0-32.0-6.49","","","fixation_4","","","","","",""
"675.4000000059605","arrows.png","39","image-keyboard-response","480","947681","0.0-32.0-7.49","","","test","rightarrow","1","1","FALSE","FALSE","true"
"null","<p style=""color: green; font-size:300%;"">correct: $7.50</p>","null","html-keyboard-response","481","948940","0.0-32.0-8.49","","","","","","","","",""
"null","<div style=""font-size:60px;""> </div>","null","html-keyboard-response","482","950493","0.0-32.0-0.50","","","fixation_1","","","","","",""
"null","switch_cue.png","null","image-keyboard-response","483","951497","0.0-32.0-1.50","","","test","leftarrow","0","1","TRUE","TRUE",""
"null","<div style=""font-size:60px;""> </div>","null","html-keyboard-response","484","951799","0.0-32.0-2.50","","","fixation_2","","","","","",""
"null","img_4.bmp","null","image-keyboard-response","485","952803","0.0-32.0-3.50","","","img_on","","","","","",""
"null","<div style=""font-size:60px;""> </div>","null","html-keyboard-response","486","953105","0.0-32.0-4.50","","","fixation_3","","","","","",""
"null","<img src=""CC1.png"" width=200 height=200/>","null","html-keyboard-response","487","954108","0.0-32.0-5.50","","","test","leftarrow","0","1","TRUE","TRUE",""
"null","<div style=""font-size:60px;""> </div>","null","html-keyboard-response","488","954410","0.0-32.0-6.50","","","fixation_4","","","","","",""
"449.29999999701977","arrows.png","37","image-keyboard-response","489","954860","0.0-32.0-7.50","","","test","leftarrow","0","1","TRUE","TRUE","true"
"null","<p style=""color: green; font-size:300%;"">correct: $2.50</p>","null","html-keyboard-response","490","956114","0.0-32.0-8.50","","","","","","","","",""
"null","<div style=""font-size:60px;""> </div>","null","html-keyboard-response","491","957418","0.0-32.0-0.51","","","fixation_1","","","","","",""
"null","switch_cue.png","null","image-keyboard-response","492","958422","0.0-32.0-1.51","","","test","uparrow","1","1","TRUE","TRUE",""
"null","<div style=""font-size:60px;""> </div>","null","html-keyboard-response","493","958726","0.0-32.0-2.51","","","fixation_2","","","","","",""
"null","img_1.bmp","null","image-keyboard-response","494","959730","0.0-32.0-3.51","","","img_on","","","","","",""
"null","<div style=""font-size:60px;""> </div>","null","html-keyboard-response","495","960032","0.0-32.0-4.51","","","fixation_3","","","","","",""
"null","<img src=""CC1.png"" width=200 height=200/>","null","html-keyboard-response","496","961035","0.0-32.0-5.51","","","test","uparrow","1","1","TRUE","TRUE",""
"null","<div style=""font-size:60px;""> </div>","null","html-keyboard-response","497","961337","0.0-32.0-6.51","","","fixation_4","","","","","",""
"273.6000000089407","arrows.png","38","image-keyboard-response","498","961611","0.0-32.0-7.51","","","test","uparrow","1","1","TRUE","TRUE","true"
"null","<p style=""color: green; font-size:300%;"">correct: $7.50</p>","null","html-keyboard-response","499","962864","0.0-32.0-8.51","","","","","","","","",""
"null","<div style=""font-size:60px;""> </div>","null","html-keyboard-response","500","963917","0.0-32.0-0.52","","","fixation_1","","","","","",""
"null","switch_cue.png","null","image-keyboard-response","501","964918","0.0-32.0-1.52","","","test","uparrow","0","2","TRUE","TRUE",""
"null","<div style=""font-size:60px;""> </div>","null","html-keyboard-response","502","965221","0.0-32.0-2.52","","","fixation_2","","","","","",""
"null","img_4.bmp","null","image-keyboard-response","503","966225","0.0-32.0-3.52","","","img_on","","","","","",""
"null","<div style=""font-size:60px;""> </div>","null","html-keyboard-response","504","966526","0.0-32.0-4.52","","","fixation_3","","","","","",""
"null","<img src=""CC2.png"" width=200 height=200/>","null","html-keyboard-response","505","967529","0.0-32.0-5.52","","","test","uparrow","0","2","TRUE","TRUE",""
"null","<div style=""font-size:60px;""> </div>","null","html-keyboard-response","506","967832","0.0-32.0-6.52","","","fixation_4","","","","","",""
"386.5","arrows.png","38","image-keyboard-response","507","968220","0.0-32.0-7.52","","","test","uparrow","0","2","TRUE","TRUE","true"
"null","<p style=""color: green; font-size:300%;"">correct: $2.50</p>","null","html-keyboard-response","508","969473","0.0-32.0-8.52","","","","","","","","",""
"null","<div style=""font-size:60px;""> </div>","null","html-keyboard-response","509","970776","0.0-32.0-0.53","","","fixation_1","","","","","",""
"null","","null","image-keyboard-response","510","970784","0.0-32.0-1.53","","","test","leftarrow","1","2","TRUE","FALSE",""
"null","<div style=""font-size:60px;""> </div>","null","html-keyboard-response","511","971086","0.0-32.0-2.53","","","fixation_2","","","","","",""
"null","img_3.bmp","null","image-keyboard-response","512","972088","0.0-32.0-3.53","","","img_on","","","","","",""
"null","<div style=""font-size:60px;""> </div>","null","html-keyboard-response","513","972390","0.0-32.0-4.53","","","fixation_3","","","","","",""
"null","<img src=""CC2.png"" width=200 height=200/>","null","html-keyboard-response","514","973393","0.0-32.0-5.53","","","test","leftarrow","1","2","TRUE","FALSE",""
"null","<div style=""font-size:60px;""> </div>","null","html-keyboard-response","515","973695","0.0-32.0-6.53","","","fixation_4","","","","","",""
"237.5","arrows.png","37","image-keyboard-response","516","973934","0.0-32.0-7.53","","","test","leftarrow","1","2","TRUE","FALSE","true"
"null","<p style=""color: green; font-size:300%;"">correct: $7.50</p>","null","html-keyboard-response","517","975187","0.0-32.0-8.53","","","","","","","","",""
"null","<div style=""font-size:60px;""> </div>","null","html-keyboard-response","518","976739","0.0-32.0-0.54","","","fixation_1","","","","","",""
"null","","null","image-keyboard-response","519","976746","0.0-32.0-1.54","","","test","rightarrow","0","2","TRUE","FALSE",""
"null","<div style=""font-size:60px;""> </div>","null","html-keyboard-response","520","977047","0.0-32.0-2.54","","","fixation_2","","","","","",""
"null","img_1.bmp","null","image-keyboard-response","521","978049","0.0-32.0-3.54","","","img_on","","","","","",""
"null","<div style=""font-size:60px;""> </div>","null","html-keyboard-response","522","978350","0.0-32.0-4.54","","","fixation_3","","","","","",""
"null","<img src=""CC2.png"" width=200 height=200/>","null","html-keyboard-response","523","979351","0.0-32.0-5.54","","","test","rightarrow","0","2","TRUE","FALSE",""
"null","<div style=""font-size:60px;""> </div>","null","html-keyboard-response","524","979655","0.0-32.0-6.54","","","fixation_4","","","","","",""
"333.20000000298023","arrows.png","39","image-keyboard-response","525","979990","0.0-32.0-7.54","","","test","rightarrow","0","2","TRUE","FALSE","true"
"null","<p style=""color: green; font-size:300%;"">correct: $2.50</p>","null","html-keyboard-response","526","981243","0.0-32.0-8.54","","","","","","","","",""
"null","<div style=""font-size:60px;""> </div>","null","html-keyboard-response","527","982045","0.0-32.0-0.55","","","fixation_1","","","","","",""
"null","","null","image-keyboard-response","528","982050","0.0-32.0-1.55","","","test","downarrow","1","2","TRUE","FALSE",""
"null","<div style=""font-size:60px;""> </div>","null","html-keyboard-response","529","982352","0.0-32.0-2.55","","","fixation_2","","","","","",""
"null","img_2.bmp","null","image-keyboard-response","530","983355","0.0-32.0-3.55","","","img_on","","","","","",""
"null","<div style=""font-size:60px;""> </div>","null","html-keyboard-response","531","983657","0.0-32.0-4.55","","","fixation_3","","","","","",""
"null","<img src=""CC2.png"" width=200 height=200/>","null","html-keyboard-response","532","984659","0.0-32.0-5.55","","","test","downarrow","1","2","TRUE","FALSE",""
"null","<div style=""font-size:60px;""> </div>","null","html-keyboard-response","533","984966","0.0-32.0-6.55","","","fixation_4","","","","","",""
"351.6000000089407","arrows.png","40","image-keyboard-response","534","985320","0.0-32.0-7.55","","","test","downarrow","1","2","TRUE","FALSE","true"
"null","<p style=""color: green; font-size:300%;"">correct: $7.50</p>","null","html-keyboard-response","535","986573","0.0-32.0-8.55","","","","","","","","",""
"null","<div style=""font-size:60px;""> </div>","null","html-keyboard-response","536","987875","0.0-32.0-0.56","","","fixation_1","","","","","",""
"null","","null","image-keyboard-response","537","987881","0.0-32.0-1.56","","","test","downarrow","1","2","FALSE","FALSE",""
"null","<div style=""font-size:60px;""> </div>","null","html-keyboard-response","538","988182","0.0-32.0-2.56","","","fixation_2","","","","","",""
"null","img_2.bmp","null","image-keyboard-response","539","989184","0.0-32.0-3.56","","","img_on","","","","","",""
"null","<div style=""font-size:60px;""> </div>","null","html-keyboard-response","540","989487","0.0-32.0-4.56","","","fixation_3","","","","","",""
"null","","null","html-keyboard-response","541","989492","0.0-32.0-5.56","","","test","downarrow","1","2","FALSE","FALSE",""
"null","<div style=""font-size:60px;""> </div>","null","html-keyboard-response","542","989794","0.0-32.0-6.56","","","fixation_4","","","","","",""
"741.6999999880791","arrows.png","40","image-keyboard-response","543","990538","0.0-32.0-7.56","","","test","downarrow","1","2","FALSE","FALSE","true"
"null","<p style=""color: green; font-size:300%;"">correct: $7.50</p>","null","html-keyboard-response","544","991792","0.0-32.0-8.56","","","","","","","","",""
"null","<div style=""font-size:60px;""> </div>","null","html-keyboard-response","545","992845","0.0-32.0-0.57","","","fixation_1","","","","","",""
"null","","null","image-keyboard-response","546","992851","0.0-32.0-1.57","","","test","uparrow","0","2","FALSE","FALSE",""
"null","<div style=""font-size:60px;""> </div>","null","html-keyboard-response","547","993153","0.0-32.0-2.57","","","fixation_2","","","","","",""
"null","img_4.bmp","null","image-keyboard-response","548","994155","0.0-32.0-3.57","","","img_on","","","","","",""
"null","<div style=""font-size:60px;""> </div>","null","html-keyboard-response","549","994457","0.0-32.0-4.57","","","fixation_3","","","","","",""
"null","","null","html-keyboard-response","550","994463","0.0-32.0-5.57","","","test","uparrow","0","2","FALSE","FALSE",""
"null","<div style=""font-size:60px;""> </div>","null","html-keyboard-response","551","994765","0.0-32.0-6.57","","","fixation_4","","","","","",""
"803.5","arrows.png","38","image-keyboard-response","552","995570","0.0-32.0-7.57","","","test","uparrow","0","2","FALSE","FALSE","true"
"null","<p style=""color: green; font-size:300%;"">correct: $2.50</p>","null","html-keyboard-response","553","996825","0.0-32.0-8.57","","","","","","","","",""
"null","<div style=""font-size:60px;""> </div>","null","html-keyboard-response","554","997878","0.0-32.0-0.58","","","fixation_1","","","","","",""
"null","","null","image-keyboard-response","555","997884","0.0-32.0-1.58","","","test","leftarrow","1","2","FALSE","FALSE",""
"null","<div style=""font-size:60px;""> </div>","null","html-keyboard-response","556","998186","0.0-32.0-2.58","","","fixation_2","","","","","",""
"null","img_3.bmp","null","image-keyboard-response","557","999188","0.0-32.0-3.58","","","img_on","","","","","",""
"null","<div style=""font-size:60px;""> </div>","null","html-keyboard-response","558","999491","0.0-32.0-4.58","","","fixation_3","","","","","",""
"null","","null","html-keyboard-response","559","999497","0.0-32.0-5.58","","","test","leftarrow","1","2","FALSE","FALSE",""
"null","<div style=""font-size:60px;""> </div>","null","html-keyboard-response","560","999798","0.0-32.0-6.58","","","fixation_4","","","","","",""
"426.40000000596046","arrows.png","37","image-keyboard-response","561","1000226","0.0-32.0-7.58","","","test","leftarrow","1","2","FALSE","FALSE","true"
"null","<p style=""color: green; font-size:300%;"">correct: $7.50</p>","null","html-keyboard-response","562","1001479","0.0-32.0-8.58","","","","","","","","",""
"null","<div style=""font-size:60px;""> </div>","null","html-keyboard-response","563","1002792","0.0-32.0-0.59","","","fixation_1","","","","","",""
"null","","null","image-keyboard-response","564","1002798","0.0-32.0-1.59","","","test","rightarrow","0","2","FALSE","FALSE",""
"null","<div style=""font-size:60px;""> </div>","null","html-keyboard-response","565","1003100","0.0-32.0-2.59","","","fixation_2","","","","","",""
"null","img_1.bmp","null","image-keyboard-response","566","1004102","0.0-32.0-3.59","","","img_on","","","","","",""
"null","<div style=""font-size:60px;""> </div>","null","html-keyboard-response","567","1004403","0.0-32.0-4.59","","","fixation_3","","","","","",""
"null","","null","html-keyboard-response","568","1004409","0.0-32.0-5.59","","","test","rightarrow","0","2","FALSE","FALSE",""
"null","<div style=""font-size:60px;""> </div>","null","html-keyboard-response","569","1004711","0.0-32.0-6.59","","","fixation_4","","","","","",""
"580.7000000029802","arrows.png","39","image-keyboard-response","570","1005292","0.0-32.0-7.59","","","test","rightarrow","0","2","FALSE","FALSE","true"
"null","<p style=""color: green; font-size:300%;"">correct: $2.50</p>","null","html-keyboard-response","571","1006549","0.0-32.0-8.59","","","","","","","","",""
"null","<div style=""font-size:60px;""> </div>","null","html-keyboard-response","572","1007851","0.0-32.0-0.60","","","fixation_1","","","","","",""
"null","","null","image-keyboard-response","573","1007858","0.0-32.0-1.60","","","test","rightarrow","0","2","FALSE","FALSE",""
"null","<div style=""font-size:60px;""> </div>","null","html-keyboard-response","574","1008163","0.0-32.0-2.60","","","fixation_2","","","","","",""
"null","img_1.bmp","null","image-keyboard-response","575","1009165","0.0-32.0-3.60","","","img_on","","","","","",""
"null","<div style=""font-size:60px;""> </div>","null","html-keyboard-response","576","1009470","0.0-32.0-4.60","","","fixation_3","","","","","",""
"null","","null","html-keyboard-response","577","1009477","0.0-32.0-5.60","","","test","rightarrow","0","2","FALSE","FALSE",""
"null","<div style=""font-size:60px;""> </div>","null","html-keyboard-response","578","1009779","0.0-32.0-6.60","","","fixation_4","","","","","",""
"670.0999999940395","arrows.png","39","image-keyboard-response","579","1010451","0.0-32.0-7.60","","","test","rightarrow","0","2","FALSE","FALSE","true"
"null","<p style=""color: green; font-size:300%;"">correct: $2.50</p>","null","html-keyboard-response","580","1011705","0.0-32.0-8.60","","","","","","","","",""
"null","<div style=""font-size:60px;""> </div>","null","html-keyboard-response","581","1012258","0.0-32.0-0.61","","","fixation_1","","","","","",""
"null","","null","image-keyboard-response","582","1012265","0.0-32.0-1.61","","","test","leftarrow","1","2","FALSE","FALSE",""
"null","<div style=""font-size:60px;""> </div>","null","html-keyboard-response","583","1012567","0.0-32.0-2.61","","","fixation_2","","","","","",""
"null","img_3.bmp","null","image-keyboard-response","584","1013569","0.0-32.0-3.61","","","img_on","","","","","",""
"null","<div style=""font-size:60px;""> </div>","null","html-keyboard-response","585","1013871","0.0-32.0-4.61","","","fixation_3","","","","","",""
"null","","null","html-keyboard-response","586","1013877","0.0-32.0-5.61","","","test","leftarrow","1","2","FALSE","FALSE",""
"null","<div style=""font-size:60px;""> </div>","null","html-keyboard-response","587","1014179","0.0-32.0-6.61","","","fixation_4","","","","","",""
"495.6000000089407","arrows.png","37","image-keyboard-response","588","1014676","0.0-32.0-7.61","","","test","leftarrow","1","2","FALSE","FALSE","true"
"null","<p style=""color: green; font-size:300%;"">correct: $7.50</p>","null","html-keyboard-response","589","1015928","0.0-32.0-8.61","","","","","","","","",""
"null","<div style=""font-size:60px;""> </div>","null","html-keyboard-response","590","1016481","0.0-32.0-0.62","","","fixation_1","","","","","",""
"null","","null","image-keyboard-response","591","1016488","0.0-32.0-1.62","","","test","uparrow","0","2","FALSE","FALSE",""
"null","<div style=""font-size:60px;""> </div>","null","html-keyboard-response","592","1016804","0.0-32.0-2.62","","","fixation_2","","","","","",""
"null","img_4.bmp","null","image-keyboard-response","593","1017808","0.0-32.0-3.62","","","img_on","","","","","",""
"null","<div style=""font-size:60px;""> </div>","null","html-keyboard-response","594","1018110","0.0-32.0-4.62","","","fixation_3","","","","","",""
"null","","null","html-keyboard-response","595","1018116","0.0-32.0-5.62","","","test","uparrow","0","2","FALSE","FALSE",""
"null","<div style=""font-size:60px;""> </div>","null","html-keyboard-response","596","1018421","0.0-32.0-6.62","","","fixation_4","","","","","",""
"529.3999999910593","arrows.png","38","image-keyboard-response","597","1018952","0.0-32.0-7.62","","","test","uparrow","0","2","FALSE","FALSE","true"
"null","<p style=""color: green; font-size:300%;"">correct: $2.50</p>","null","html-keyboard-response","598","1020205","0.0-32.0-8.62","","","","","","","","",""
"null","<div style=""font-size:60px;""> </div>","null","html-keyboard-response","599","1021508","0.0-32.0-0.63","","","fixation_1","","","","","",""
"null","switch_cue.png","null","image-keyboard-response","600","1022512","0.0-32.0-1.63","","","test","downarrow","1","2","TRUE","TRUE",""
"null","<div style=""font-size:60px;""> </div>","null","html-keyboard-response","601","1022815","0.0-32.0-2.63","","","fixation_2","","","","","",""
"null","img_2.bmp","null","image-keyboard-response","602","1023817","0.0-32.0-3.63","","","img_on","","","","","",""
"null","<div style=""font-size:60px;""> </div>","null","html-keyboard-response","603","1024120","0.0-32.0-4.63","","","fixation_3","","","","","",""
"null","<img src=""CC2.png"" width=200 height=200/>","null","html-keyboard-response","604","1025126","0.0-32.0-5.63","","","test","downarrow","1","2","TRUE","TRUE",""
"null","<div style=""font-size:60px;""> </div>","null","html-keyboard-response","605","1025428","0.0-32.0-6.63","","","fixation_4","","","","","",""
"412.6000000089407","arrows.png","40","image-keyboard-response","606","1025842","0.0-32.0-7.63","","","test","downarrow","1","2","TRUE","TRUE","true"
"null","<p style=""color: green; font-size:300%;"">correct: $7.50</p>","null","html-keyboard-response","607","1027096","0.0-32.0-8.63","","","","","","","","",""
"null","<div style=""font-size:60px;""> </div>","null","html-keyboard-response","608","1027898","0.0-32.0-0.64","","","fixation_1","","","","","",""
"null","switch_cue.png","null","image-keyboard-response","609","1028901","0.0-32.0-1.64","","","test","rightarrow","1","3","TRUE","TRUE",""
"null","<div style=""font-size:60px;""> </div>","null","html-keyboard-response","610","1029204","0.0-32.0-2.64","","","fixation_2","","","","","",""
"null","img_2.bmp","null","image-keyboard-response","611","1030206","0.0-32.0-3.64","","","img_on","","","","","",""
"null","<div style=""font-size:60px;""> </div>","null","html-keyboard-response","612","1030509","0.0-32.0-4.64","","","fixation_3","","","","","",""
"null","<img src=""CC3.png"" width=200 height=200/>","null","html-keyboard-response","613","1031512","0.0-32.0-5.64","","","test","rightarrow","1","3","TRUE","TRUE",""
"null","<div style=""font-size:60px;""> </div>","null","html-keyboard-response","614","1031815","0.0-32.0-6.64","","","fixation_4","","","","","",""
"412.20000000298023","arrows.png","37","image-keyboard-response","615","1032229","0.0-32.0-7.64","","","test","rightarrow","1","3","TRUE","TRUE","false"
"null","<p style=""color: red; font-size:300%;"">incorrect: $0</p>","null","html-keyboard-response","616","1033481","0.0-32.0-8.64","","","","","","","","",""
"null","<div style=""font-size:60px;""> </div>","null","html-keyboard-response","617","1034537","0.0-32.0-0.65","","","fixation_1","","","","","",""
"null","","null","image-keyboard-response","618","1034545","0.0-32.0-1.65","","","test","downarrow","0","3","TRUE","FALSE",""
"null","<div style=""font-size:60px;""> </div>","null","html-keyboard-response","619","1034847","0.0-32.0-2.65","","","fixation_2","","","","","",""
"null","img_3.bmp","null","image-keyboard-response","620","1035851","0.0-32.0-3.65","","","img_on","","","","","",""
"null","<div style=""font-size:60px;""> </div>","null","html-keyboard-response","621","1036163","0.0-32.0-4.65","","","fixation_3","","","","","",""
"null","<img src=""CC3.png"" width=200 height=200/>","null","html-keyboard-response","622","1037180","0.0-32.0-5.65","","","test","downarrow","0","3","TRUE","FALSE",""
"null","<div style=""font-size:60px;""> </div>","null","html-keyboard-response","623","1037482","0.0-32.0-6.65","","","fixation_4","","","","","",""
"837.3999999910593","arrows.png","38","image-keyboard-response","624","1038321","0.0-32.0-7.65","","","test","downarrow","0","3","TRUE","FALSE","false"
"null","<p style=""color: red; font-size:300%;"">incorrect: $0</p>","null","html-keyboard-response","625","1039573","0.0-32.0-8.65","","","","","","","","",""
"null","<div style=""font-size:60px;""> </div>","null","html-keyboard-response","626","1041127","0.0-32.0-0.66","","","fixation_1","","","","","",""
"null","","null","image-keyboard-response","627","1041134","0.0-32.0-1.66","","","test","leftarrow","0","3","TRUE","FALSE",""
"null","<div style=""font-size:60px;""> </div>","null","html-keyboard-response","628","1041435","0.0-32.0-2.66","","","fixation_2","","","","","",""
"null","img_4.bmp","null","image-keyboard-response","629","1042438","0.0-32.0-3.66","","","img_on","","","","","",""
"null","<div style=""font-size:60px;""> </div>","null","html-keyboard-response","630","1042740","0.0-32.0-4.66","","","fixation_3","","","","","",""
"null","<img src=""CC3.png"" width=200 height=200/>","null","html-keyboard-response","631","1043742","0.0-32.0-5.66","","","test","leftarrow","0","3","TRUE","FALSE",""
"null","<div style=""font-size:60px;""> </div>","null","html-keyboard-response","632","1044044","0.0-32.0-6.66","","","fixation_4","","","","","",""
"308.5","arrows.png","39","image-keyboard-response","633","1044354","0.0-32.0-7.66","","","test","leftarrow","0","3","TRUE","FALSE","false"
"null","<p style=""color: red; font-size:300%;"">incorrect: $0</p>","null","html-keyboard-response","634","1045606","0.0-32.0-8.66","","","","","","","","",""
"null","<div style=""font-size:60px;""> </div>","null","html-keyboard-response","635","1046409","0.0-32.0-0.67","","","fixation_1","","","","","",""
"null","","null","image-keyboard-response","636","1046415","0.0-32.0-1.67","","","test","leftarrow","0","3","TRUE","FALSE",""
"null","<div style=""font-size:60px;""> </div>","null","html-keyboard-response","637","1046717","0.0-32.0-2.67","","","fixation_2","","","","","",""
"null","img_4.bmp","null","image-keyboard-response","638","1047720","0.0-32.0-3.67","","","img_on","","","","","",""
"null","<div style=""font-size:60px;""> </div>","null","html-keyboard-response","639","1048022","0.0-32.0-4.67","","","fixation_3","","","","","",""
"null","<img src=""CC3.png"" width=200 height=200/>","null","html-keyboard-response","640","1049023","0.0-32.0-5.67","","","test","leftarrow","0","3","TRUE","FALSE",""
"null","<div style=""font-size:60px;""> </div>","null","html-keyboard-response","641","1049327","0.0-32.0-6.67","","","fixation_4","","","","","",""
"338.5","arrows.png","40","image-keyboard-response","642","1049666","0.0-32.0-7.67","","","test","leftarrow","0","3","TRUE","FALSE","false"
"null","<p style=""color: red; font-size:300%;"">incorrect: $0</p>","null","html-keyboard-response","643","1050925","0.0-32.0-8.67","","","","","","","","",""
"null","<div style=""font-size:60px;""> </div>","null","html-keyboard-response","644","1052478","0.0-32.0-0.68","","","fixation_1","","","","","",""
"null","","null","image-keyboard-response","645","1052484","0.0-32.0-1.68","","","test","downarrow","0","3","FALSE","FALSE",""
"null","<div style=""font-size:60px;""> </div>","null","html-keyboard-response","646","1052786","0.0-32.0-2.68","","","fixation_2","","","","","",""
"null","img_3.bmp","null","image-keyboard-response","647","1053789","0.0-32.0-3.68","","","img_on","","","","","",""
"null","<div style=""font-size:60px;""> </div>","null","html-keyboard-response","648","1054091","0.0-32.0-4.68","","","fixation_3","","","","","",""
"null","","null","html-keyboard-response","649","1054097","0.0-32.0-5.68","","","test","downarrow","0","3","FALSE","FALSE",""
"null","<div style=""font-size:60px;""> </div>","null","html-keyboard-response","650","1054399","0.0-32.0-6.68","","","fixation_4","","","","","",""
"916.9000000059605","arrows.png","37","image-keyboard-response","651","1055318","0.0-32.0-7.68","","","test","downarrow","0","3","FALSE","FALSE","false"
"null","<p style=""color: red; font-size:300%;"">incorrect: $0</p>","null","html-keyboard-response","652","1056571","0.0-32.0-8.68","","","","","","","","",""
"null","<div style=""font-size:60px;""> </div>","null","html-keyboard-response","653","1057873","0.0-32.0-0.69","","","fixation_1","","","","","",""
"null","","null","image-keyboard-response","654","1057880","0.0-32.0-1.69","","","test","rightarrow","1","3","FALSE","FALSE",""
"null","<div style=""font-size:60px;""> </div>","null","html-keyboard-response","655","1058181","0.0-32.0-2.69","","","fixation_2","","","","","",""
"null","img_2.bmp","null","image-keyboard-response","656","1059184","0.0-32.0-3.69","","","img_on","","","","","",""
"null","<div style=""font-size:60px;""> </div>","null","html-keyboard-response","657","1059486","0.0-32.0-4.69","","","fixation_3","","","","","",""
"null","","null","html-keyboard-response","658","1059491","0.0-32.0-5.69","","","test","rightarrow","1","3","FALSE","FALSE",""
"null","<div style=""font-size:60px;""> </div>","null","html-keyboard-response","659","1059792","0.0-32.0-6.69","","","fixation_4","","","","","",""
"819.7000000029802","arrows.png","39","image-keyboard-response","660","1060614","0.0-32.0-7.69","","","test","rightarrow","1","3","FALSE","FALSE","true"
"null","<p style=""color: green; font-size:300%;"">correct: $7.50</p>","null","html-keyboard-response","661","1061867","0.0-32.0-8.69","","","","","","","","",""
"null","<div style=""font-size:60px;""> </div>","null","html-keyboard-response","662","1063169","0.0-32.0-0.70","","","fixation_1","","","","","",""
"null","","null","image-keyboard-response","663","1063178","0.0-32.0-1.70","","","test","leftarrow","0","3","FALSE","FALSE",""
"null","<div style=""font-size:60px;""> </div>","null","html-keyboard-response","664","1063487","0.0-32.0-2.70","","","fixation_2","","","","","",""
"null","img_4.bmp","null","image-keyboard-response","665","1064489","0.0-32.0-3.70","","","img_on","","","","","",""
"null","<div style=""font-size:60px;""> </div>","null","html-keyboard-response","666","1064791","0.0-32.0-4.70","","","fixation_3","","","","","",""
"null","","null","html-keyboard-response","667","1064799","0.0-32.0-5.70","","","test","leftarrow","0","3","FALSE","FALSE",""
"null","<div style=""font-size:60px;""> </div>","null","html-keyboard-response","668","1065101","0.0-32.0-6.70","","","fixation_4","","","","","",""
"506.09999999403954","arrows.png","37","image-keyboard-response","669","1065609","0.0-32.0-7.70","","","test","leftarrow","0","3","FALSE","FALSE","true"
"null","<p style=""color: green; font-size:300%;"">correct: $2.50</p>","null","html-keyboard-response","670","1066864","0.0-32.0-8.70","","","","","","","","",""
"null","<div style=""font-size:60px;""> </div>","null","html-keyboard-response","671","1067419","0.0-32.0-0.71","","","fixation_1","","","","","",""
"null","","null","image-keyboard-response","672","1067424","0.0-32.0-1.71","","","test","downarrow","0","3","FALSE","FALSE",""
"null","<div style=""font-size:60px;""> </div>","null","html-keyboard-response","673","1067726","0.0-32.0-2.71","","","fixation_2","","","","","",""
"null","img_3.bmp","null","image-keyboard-response","674","1068729","0.0-32.0-3.71","","","img_on","","","","","",""
"null","<div style=""font-size:60px;""> </div>","null","html-keyboard-response","675","1069030","0.0-32.0-4.71","","","fixation_3","","","","","",""
"null","","null","html-keyboard-response","676","1069036","0.0-32.0-5.71","","","test","downarrow","0","3","FALSE","FALSE",""
"null","<div style=""font-size:60px;""> </div>","null","html-keyboard-response","677","1069337","0.0-32.0-6.71","","","fixation_4","","","","","",""
"463.1000000089407","arrows.png","40","image-keyboard-response","678","1069803","0.0-32.0-7.71","","","test","downarrow","0","3","FALSE","FALSE","true"
"null","<p style=""color: green; font-size:300%;"">correct: $2.50</p>","null","html-keyboard-response","679","1071056","0.0-32.0-8.71","","","","","","","","",""
"null","<div style=""font-size:60px;""> </div>","null","html-keyboard-response","680","1071860","0.0-32.0-0.72","","","fixation_1","","","","","",""
"null","","null","image-keyboard-response","681","1071867","0.0-32.0-1.72","","","test","rightarrow","1","3","FALSE","FALSE",""
"null","<div style=""font-size:60px;""> </div>","null","html-keyboard-response","682","1072182","0.0-32.0-2.72","","","fixation_2","","","","","",""
"null","img_2.bmp","null","image-keyboard-response","683","1073187","0.0-32.0-3.72","","","img_on","","","","","",""
"null","<div style=""font-size:60px;""> </div>","null","html-keyboard-response","684","1073489","0.0-32.0-4.72","","","fixation_3","","","","","",""
"null","","null","html-keyboard-response","685","1073496","0.0-32.0-5.72","","","test","rightarrow","1","3","FALSE","FALSE",""
"null","<div style=""font-size:60px;""> </div>","null","html-keyboard-response","686","1073799","0.0-32.0-6.72","","","fixation_4","","","","","",""
"404.29999999701977","arrows.png","39","image-keyboard-response","687","1074206","0.0-32.0-7.72","","","test","rightarrow","1","3","FALSE","FALSE","true"
"null","<p style=""color: green; font-size:300%;"">correct: $7.50</p>","null","html-keyboard-response","688","1075459","0.0-32.0-8.72","","","","","","","","",""
"null","<div style=""font-size:60px;""> </div>","null","html-keyboard-response","689","1077012","0.0-32.0-0.73","","","fixation_1","","","","","",""
"null","switch_cue.png","null","image-keyboard-response","690","1078016","0.0-32.0-1.73","","","test","uparrow","0","4","TRUE","TRUE",""
"null","<div style=""font-size:60px;""> </div>","null","html-keyboard-response","691","1078319","0.0-32.0-2.73","","","fixation_2","","","","","",""
"null","img_4.bmp","null","image-keyboard-response","692","1079321","0.0-32.0-3.73","","","img_on","","","","","",""
"null","<div style=""font-size:60px;""> </div>","null","html-keyboard-response","693","1079623","0.0-32.0-4.73","","","fixation_3","","","","","",""
"null","<img src=""CC4.png"" width=200 height=200/>","null","html-keyboard-response","694","1080625","0.0-32.0-5.73","","","test","uparrow","0","4","TRUE","TRUE",""
