"rt","stimulus","key_press","trial_type","trial_index","time_elapsed","internal_node_id","responses","view_history","test_part","correct_response","outcome","context","cc","sc","correct"
"10540","<p><b>Welcome to the Picture Learning Game!</b></p>
      <p>The game will take ~35 minutes to complete, and you can make up to $17.50.</p>
      <p>You must use a desktop or laptop computer computer (no mobile devices).</p>
      <p><em>Press any key to continue.</em></p>","32","html-keyboard-response","0","10543","0.0-0.0","","","","","","","","",""
"3103","","","survey-text","1","13649","0.0-1.0","{""aws"":""AQXRHIMQ7UK7O""}","","","","","","","",""
"10808","","","survey-text","2","24460","0.0-2.0","{""age"":""39"",""english"":""y"",""handedness"":""r"",""desktop"":""y""}","","","","","","","",""
"199454","","","instructions","3","223910","0.0-3.0","","[{""page_index"":0,""viewing_time"":9359},{""page_index"":1,""viewing_time"":7383},{""page_index"":2,""viewing_time"":159240},{""page_index"":3,""viewing_time"":19497},{""page_index"":4,""viewing_time"":3975}]","","","","","","",""
"null","sample1.bmp","null","image-keyboard-response","4","224912","0.0-4.0","","","","","","","","",""
"986","arrows.png","38","image-keyboard-response","5","226200","0.0-5.0","","","","","","","","",""
"23280","","","instructions","6","249483","0.0-6.0","","[{""page_index"":0,""viewing_time"":1979},{""page_index"":1,""viewing_time"":17657},{""page_index"":2,""viewing_time"":3644}]","","","","","","",""
"null","sample1.bmp","null","image-keyboard-response","7","250487","0.0-7.0","","","","","","","","",""
"null","<img src=""CC1.png"" width=200 height=200/>","null","html-keyboard-response","8","251793","0.0-8.0","","","","","","","","",""
"670","arrows.png","38","image-keyboard-response","9","252768","0.0-9.0","","","","","","","","",""
"5896","","","instructions","10","258664","0.0-10.0","","[{""page_index"":0,""viewing_time"":1170},{""page_index"":1,""viewing_time"":4726}]","","","","","","",""
"null","sample1.bmp","null","image-keyboard-response","11","259669","0.0-11.0","","","","","","","","",""
"null","<img src=""CC2.png"" width=200 height=200/>","null","html-keyboard-response","12","260977","0.0-12.0","","","","","","","","",""
"622","arrows.png","39","image-keyboard-response","13","261904","0.0-13.0","","","","","","","","",""
"35807","","","instructions","14","297709","0.0-14.0","","[{""page_index"":0,""viewing_time"":1589},{""page_index"":1,""viewing_time"":5656},{""page_index"":2,""viewing_time"":12586},{""page_index"":3,""viewing_time"":10516},{""page_index"":4,""viewing_time"":5460}]","","","","","","",""
"null","sample1.bmp","null","image-keyboard-response","15","298714","0.0-15.0","","","","","","","","",""
"596","arrows.png","39","image-keyboard-response","16","299615","0.0-16.0","","","","","","","","",""
"19096","","","instructions","17","318711","0.0-17.0","","[{""page_index"":0,""viewing_time"":3299},{""page_index"":1,""viewing_time"":10351},{""page_index"":2,""viewing_time"":5446}]","","","","","","",""
"null","sample1.bmp","null","image-keyboard-response","18","319716","0.0-18.0","","","","","","","","",""
"775","arrows.png","39","image-keyboard-response","19","320795","0.0-19.0","","","","","","","","",""
"null","<p style=""color: green; font-size:300%;"">correct</p>","null","html-keyboard-response","20","321799","0.0-20.0","","","","","","","","",""
"null","switch_cue.png","null","image-keyboard-response","21","323106","0.0-21.0","","","","","","","","",""
"null","sample1.bmp","null","image-keyboard-response","22","324415","0.0-22.0","","","","","","","","",""
"null","<img src=""CC2.png"" width=200 height=200/>","null","html-keyboard-response","23","325724","0.0-23.0","","","","","","","","",""
"483","arrows.png","39","image-keyboard-response","24","326510","0.0-24.0","","","","","","","","",""
"null","<p style=""color: green; font-size:300%;"">correct</p>","null","html-keyboard-response","25","327511","0.0-25.0","","","","","","","","",""
"null","switch_cue.png","null","image-keyboard-response","26","328821","0.0-26.0","","","","","","","","",""
"null","sample1.bmp","null","image-keyboard-response","27","330130","0.0-27.0","","","","","","","","",""
"null","<img src=""CC1.png"" width=200 height=200/>","null","html-keyboard-response","28","331436","0.0-28.0","","","","","","","","",""
"694","arrows.png","38","image-keyboard-response","29","332435","0.0-29.0","","","","","","","","",""
"null","<p style=""color: green; font-size:300%;"">correct</p>","null","html-keyboard-response","30","333439","0.0-30.0","","","","","","","","",""
"66029","","","instructions","31","399772","0.0-31.0","","[{""page_index"":0,""viewing_time"":6986},{""page_index"":1,""viewing_time"":1291},{""page_index"":2,""viewing_time"":10049},{""page_index"":3,""viewing_time"":10186},{""page_index"":4,""viewing_time"":4290},{""page_index"":5,""viewing_time"":5866},{""page_index"":6,""viewing_time"":20041},{""page_index"":7,""viewing_time"":7320}]","","","","","","",""
"null","<div style=""font-size:60px;""> </div>","null","html-keyboard-response","32","400077","0.0-32.0-0.0","","","fixation_1","","","","","",""
"null","","null","image-keyboard-response","33","400079","0.0-32.0-1.0","","","test","leftarrow","1","1","TRUE","FALSE",""
"null","<div style=""font-size:60px;""> </div>","null","html-keyboard-response","34","400383","0.0-32.0-2.0","","","fixation_2","","","","","",""
"null","img_3.bmp","null","image-keyboard-response","35","401389","0.0-32.0-3.0","","","img_on","","","","","",""
"null","<div style=""font-size:60px;""> </div>","null","html-keyboard-response","36","401691","0.0-32.0-4.0","","","fixation_3","","","","","",""
"null","<img src=""CC1.png"" width=200 height=200/>","null","html-keyboard-response","37","402696","0.0-32.0-5.0","","","test","leftarrow","1","1","TRUE","FALSE",""
"null","<div style=""font-size:60px;""> </div>","null","html-keyboard-response","38","402997","0.0-32.0-6.0","","","fixation_4","","","","","",""
"283","arrows.png","38","image-keyboard-response","39","403281","0.0-32.0-7.0","","","test","leftarrow","1","1","TRUE","FALSE","false"
"null","<p style=""color: red; font-size:300%;"">incorrect: $0</p>","null","html-keyboard-response","40","404539","0.0-32.0-8.0","","","","","","","","",""
"null","<div style=""font-size:60px;""> </div>","null","html-keyboard-response","41","405099","0.0-32.0-0.1","","","fixation_1","","","","","",""
"null","","null","image-keyboard-response","42","405104","0.0-32.0-1.1","","","test","downarrow","1","1","TRUE","FALSE",""
"null","<div style=""font-size:60px;""> </div>","null","html-keyboard-response","43","405407","0.0-32.0-2.1","","","fixation_2","","","","","",""
"null","img_2.bmp","null","image-keyboard-response","44","406411","0.0-32.0-3.1","","","img_on","","","","","",""
"null","<div style=""font-size:60px;""> </div>","null","html-keyboard-response","45","406716","0.0-32.0-4.1","","","fixation_3","","","","","",""
"null","<img src=""CC1.png"" width=200 height=200/>","null","html-keyboard-response","46","407720","0.0-32.0-5.1","","","test","downarrow","1","1","TRUE","FALSE",""
"null","<div style=""font-size:60px;""> </div>","null","html-keyboard-response","47","408024","0.0-32.0-6.1","","","fixation_4","","","","","",""
"448","arrows.png","38","image-keyboard-response","48","408472","0.0-32.0-7.1","","","test","downarrow","1","1","TRUE","FALSE","false"
"null","<p style=""color: red; font-size:300%;"">incorrect: $0</p>","null","html-keyboard-response","49","409732","0.0-32.0-8.1","","","","","","","","",""
"null","<div style=""font-size:60px;""> </div>","null","html-keyboard-response","50","410791","0.0-32.0-0.2","","","fixation_1","","","","","",""
"null","","null","image-keyboard-response","51","410795","0.0-32.0-1.2","","","test","uparrow","0","1","TRUE","FALSE",""
"null","<div style=""font-size:60px;""> </div>","null","html-keyboard-response","52","411100","0.0-32.0-2.2","","","fixation_2","","","","","",""
"null","img_4.bmp","null","image-keyboard-response","53","412104","0.0-32.0-3.2","","","img_on","","","","","",""
"null","<div style=""font-size:60px;""> </div>","null","html-keyboard-response","54","412408","0.0-32.0-4.2","","","fixation_3","","","","","",""
"null","<img src=""CC1.png"" width=200 height=200/>","null","html-keyboard-response","55","413413","0.0-32.0-5.2","","","test","uparrow","0","1","TRUE","FALSE",""
"null","<div style=""font-size:60px;""> </div>","null","html-keyboard-response","56","413718","0.0-32.0-6.2","","","fixation_4","","","","","",""
"393","arrows.png","38","image-keyboard-response","57","414112","0.0-32.0-7.2","","","test","uparrow","0","1","TRUE","FALSE","true"
"null","<p style=""color: green; font-size:300%;"">correct: $2.50</p>","null","html-keyboard-response","58","415371","0.0-32.0-8.2","","","","","","","","",""
"null","<div style=""font-size:60px;""> </div>","null","html-keyboard-response","59","416426","0.0-32.0-0.3","","","fixation_1","","","","","",""
"null","","null","image-keyboard-response","60","416431","0.0-32.0-1.3","","","test","rightarrow","0","1","TRUE","FALSE",""
"null","<div style=""font-size:60px;""> </div>","null","html-keyboard-response","61","416736","0.0-32.0-2.3","","","fixation_2","","","","","",""
"null","img_1.bmp","null","image-keyboard-response","62","417741","0.0-32.0-3.3","","","img_on","","","","","",""
"null","<div style=""font-size:60px;""> </div>","null","html-keyboard-response","63","418044","0.0-32.0-4.3","","","fixation_3","","","","","",""
"null","<img src=""CC1.png"" width=200 height=200/>","null","html-keyboard-response","64","419048","0.0-32.0-5.3","","","test","rightarrow","0","1","TRUE","FALSE",""
"null","<div style=""font-size:60px;""> </div>","null","html-keyboard-response","65","419353","0.0-32.0-6.3","","","fixation_4","","","","","",""
"309","arrows.png","39","image-keyboard-response","66","419661","0.0-32.0-7.3","","","test","rightarrow","0","1","TRUE","FALSE","true"
"null","<p style=""color: green; font-size:300%;"">correct: $2.50</p>","null","html-keyboard-response","67","420920","0.0-32.0-8.3","","","","","","","","",""
"null","<div style=""font-size:60px;""> </div>","null","html-keyboard-response","68","421979","0.0-32.0-0.4","","","fixation_1","","","","","",""
"null","","null","image-keyboard-response","69","421985","0.0-32.0-1.4","","","test","uparrow","0","1","FALSE","FALSE",""
"null","<div style=""font-size:60px;""> </div>","null","html-keyboard-response","70","422288","0.0-32.0-2.4","","","fixation_2","","","","","",""
"null","img_4.bmp","null","image-keyboard-response","71","423291","0.0-32.0-3.4","","","img_on","","","","","",""
"null","<div style=""font-size:60px;""> </div>","null","html-keyboard-response","72","423597","0.0-32.0-4.4","","","fixation_3","","","","","",""
"null","","null","html-keyboard-response","73","423602","0.0-32.0-5.4","","","test","uparrow","0","1","FALSE","FALSE",""
"null","<div style=""font-size:60px;""> </div>","null","html-keyboard-response","74","423907","0.0-32.0-6.4","","","fixation_4","","","","","",""
"479","arrows.png","38","image-keyboard-response","75","424387","0.0-32.0-7.4","","","test","uparrow","0","1","FALSE","FALSE","true"
"null","<p style=""color: green; font-size:300%;"">correct: $2.50</p>","null","html-keyboard-response","76","425646","0.0-32.0-8.4","","","","","","","","",""
"null","<div style=""font-size:60px;""> </div>","null","html-keyboard-response","77","426202","0.0-32.0-0.5","","","fixation_1","","","","","",""
"null","","null","image-keyboard-response","78","426208","0.0-32.0-1.5","","","test","leftarrow","1","1","FALSE","FALSE",""
"null","<div style=""font-size:60px;""> </div>","null","html-keyboard-response","79","426512","0.0-32.0-2.5","","","fixation_2","","","","","",""
"null","img_3.bmp","null","image-keyboard-response","80","427518","0.0-32.0-3.5","","","img_on","","","","","",""
"null","<div style=""font-size:60px;""> </div>","null","html-keyboard-response","81","427822","0.0-32.0-4.5","","","fixation_3","","","","","",""
"null","","null","html-keyboard-response","82","427828","0.0-32.0-5.5","","","test","leftarrow","1","1","FALSE","FALSE",""
"null","<div style=""font-size:60px;""> </div>","null","html-keyboard-response","83","428130","0.0-32.0-6.5","","","fixation_4","","","","","",""
"530","arrows.png","40","image-keyboard-response","84","428662","0.0-32.0-7.5","","","test","leftarrow","1","1","FALSE","FALSE","false"
"null","<p style=""color: red; font-size:300%;"">incorrect: $0</p>","null","html-keyboard-response","85","429922","0.0-32.0-8.5","","","","","","","","",""
"null","<div style=""font-size:60px;""> </div>","null","html-keyboard-response","86","431477","0.0-32.0-0.6","","","fixation_1","","","","","",""
"null","","null","image-keyboard-response","87","431481","0.0-32.0-1.6","","","test","rightarrow","0","1","FALSE","FALSE",""
"null","<div style=""font-size:60px;""> </div>","null","html-keyboard-response","88","431784","0.0-32.0-2.6","","","fixation_2","","","","","",""
"null","img_1.bmp","null","image-keyboard-response","89","432790","0.0-32.0-3.6","","","img_on","","","","","",""
"null","<div style=""font-size:60px;""> </div>","null","html-keyboard-response","90","433094","0.0-32.0-4.6","","","fixation_3","","","","","",""
"null","","null","html-keyboard-response","91","433099","0.0-32.0-5.6","","","test","rightarrow","0","1","FALSE","FALSE",""
"null","<div style=""font-size:60px;""> </div>","null","html-keyboard-response","92","433404","0.0-32.0-6.6","","","fixation_4","","","","","",""
"627","arrows.png","39","image-keyboard-response","93","434031","0.0-32.0-7.6","","","test","rightarrow","0","1","FALSE","FALSE","true"
"null","<p style=""color: green; font-size:300%;"">correct: $2.50</p>","null","html-keyboard-response","94","435291","0.0-32.0-8.6","","","","","","","","",""
"null","<div style=""font-size:60px;""> </div>","null","html-keyboard-response","95","436350","0.0-32.0-0.7","","","fixation_1","","","","","",""
"null","","null","image-keyboard-response","96","436355","0.0-32.0-1.7","","","test","downarrow","1","1","FALSE","FALSE",""
"null","<div style=""font-size:60px;""> </div>","null","html-keyboard-response","97","436659","0.0-32.0-2.7","","","fixation_2","","","","","",""
"null","img_2.bmp","null","image-keyboard-response","98","437662","0.0-32.0-3.7","","","img_on","","","","","",""
"null","<div style=""font-size:60px;""> </div>","null","html-keyboard-response","99","437966","0.0-32.0-4.7","","","fixation_3","","","","","",""
"null","","null","html-keyboard-response","100","437971","0.0-32.0-5.7","","","test","downarrow","1","1","FALSE","FALSE",""
"null","<div style=""font-size:60px;""> </div>","null","html-keyboard-response","101","438274","0.0-32.0-6.7","","","fixation_4","","","","","",""
"408","arrows.png","40","image-keyboard-response","102","438682","0.0-32.0-7.7","","","test","downarrow","1","1","FALSE","FALSE","true"
"null","<p style=""color: green; font-size:300%;"">correct: $7.50</p>","null","html-keyboard-response","103","439939","0.0-32.0-8.7","","","","","","","","",""
"null","<div style=""font-size:60px;""> </div>","null","html-keyboard-response","104","441249","0.0-32.0-0.8","","","fixation_1","","","","","",""
"null","","null","image-keyboard-response","105","441254","0.0-32.0-1.8","","","test","leftarrow","1","1","FALSE","FALSE",""
"null","<div style=""font-size:60px;""> </div>","null","html-keyboard-response","106","441559","0.0-32.0-2.8","","","fixation_2","","","","","",""
"null","img_3.bmp","null","image-keyboard-response","107","442564","0.0-32.0-3.8","","","img_on","","","","","",""
"null","<div style=""font-size:60px;""> </div>","null","html-keyboard-response","108","442870","0.0-32.0-4.8","","","fixation_3","","","","","",""
"null","","null","html-keyboard-response","109","442875","0.0-32.0-5.8","","","test","leftarrow","1","1","FALSE","FALSE",""
"null","<div style=""font-size:60px;""> </div>","null","html-keyboard-response","110","443179","0.0-32.0-6.8","","","fixation_4","","","","","",""
"407","arrows.png","37","image-keyboard-response","111","443587","0.0-32.0-7.8","","","test","leftarrow","1","1","FALSE","FALSE","true"
"null","<p style=""color: green; font-size:300%;"">correct: $7.50</p>","null","html-keyboard-response","112","444846","0.0-32.0-8.8","","","","","","","","",""
"null","<div style=""font-size:60px;""> </div>","null","html-keyboard-response","113","445656","0.0-32.0-0.9","","","fixation_1","","","","","",""
"null","","null","image-keyboard-response","114","445661","0.0-32.0-1.9","","","test","rightarrow","0","1","FALSE","FALSE",""
"null","<div style=""font-size:60px;""> </div>","null","html-keyboard-response","115","445966","0.0-32.0-2.9","","","fixation_2","","","","","",""
"null","img_1.bmp","null","image-keyboard-response","116","446970","0.0-32.0-3.9","","","img_on","","","","","",""
"null","<div style=""font-size:60px;""> </div>","null","html-keyboard-response","117","447274","0.0-32.0-4.9","","","fixation_3","","","","","",""
"null","","null","html-keyboard-response","118","447280","0.0-32.0-5.9","","","test","rightarrow","0","1","FALSE","FALSE",""
"null","<div style=""font-size:60px;""> </div>","null","html-keyboard-response","119","447584","0.0-32.0-6.9","","","fixation_4","","","","","",""
"502","arrows.png","39","image-keyboard-response","120","448087","0.0-32.0-7.9","","","test","rightarrow","0","1","FALSE","FALSE","true"
"null","<p style=""color: green; font-size:300%;"">correct: $2.50</p>","null","html-keyboard-response","121","449341","0.0-32.0-8.9","","","","","","","","",""
"null","<div style=""font-size:60px;""> </div>","null","html-keyboard-response","122","450899","0.0-32.0-0.10","","","fixation_1","","","","","",""
"null","","null","image-keyboard-response","123","450905","0.0-32.0-1.10","","","test","downarrow","1","1","FALSE","FALSE",""
"null","<div style=""font-size:60px;""> </div>","null","html-keyboard-response","124","451207","0.0-32.0-2.10","","","fixation_2","","","","","",""
"null","img_2.bmp","null","image-keyboard-response","125","452212","0.0-32.0-3.10","","","img_on","","","","","",""
"null","<div style=""font-size:60px;""> </div>","null","html-keyboard-response","126","452515","0.0-32.0-4.10","","","fixation_3","","","","","",""
"null","","null","html-keyboard-response","127","452521","0.0-32.0-5.10","","","test","downarrow","1","1","FALSE","FALSE",""
"null","<div style=""font-size:60px;""> </div>","null","html-keyboard-response","128","452824","0.0-32.0-6.10","","","fixation_4","","","","","",""
"363","arrows.png","40","image-keyboard-response","129","453188","0.0-32.0-7.10","","","test","downarrow","1","1","FALSE","FALSE","true"
"null","<p style=""color: green; font-size:300%;"">correct: $7.50</p>","null","html-keyboard-response","130","454446","0.0-32.0-8.10","","","","","","","","",""
"null","<div style=""font-size:60px;""> </div>","null","html-keyboard-response","131","456007","0.0-32.0-0.11","","","fixation_1","","","","","",""
"null","","null","image-keyboard-response","132","456012","0.0-32.0-1.11","","","test","uparrow","0","1","FALSE","FALSE",""
"null","<div style=""font-size:60px;""> </div>","null","html-keyboard-response","133","456315","0.0-32.0-2.11","","","fixation_2","","","","","",""
"null","img_4.bmp","null","image-keyboard-response","134","457320","0.0-32.0-3.11","","","img_on","","","","","",""
"null","<div style=""font-size:60px;""> </div>","null","html-keyboard-response","135","457624","0.0-32.0-4.11","","","fixation_3","","","","","",""
"null","","null","html-keyboard-response","136","457629","0.0-32.0-5.11","","","test","uparrow","0","1","FALSE","FALSE",""
"null","<div style=""font-size:60px;""> </div>","null","html-keyboard-response","137","457930","0.0-32.0-6.11","","","fixation_4","","","","","",""
"418","arrows.png","38","image-keyboard-response","138","458347","0.0-32.0-7.11","","","test","uparrow","0","1","FALSE","FALSE","true"
"null","<p style=""color: green; font-size:300%;"">correct: $2.50</p>","null","html-keyboard-response","139","459606","0.0-32.0-8.11","","","","","","","","",""
"null","<div style=""font-size:60px;""> </div>","null","html-keyboard-response","140","460663","0.0-32.0-0.12","","","fixation_1","","","","","",""
"null","","null","image-keyboard-response","141","460668","0.0-32.0-1.12","","","test","rightarrow","0","1","FALSE","FALSE",""
"null","<div style=""font-size:60px;""> </div>","null","html-keyboard-response","142","460973","0.0-32.0-2.12","","","fixation_2","","","","","",""
"null","img_1.bmp","null","image-keyboard-response","143","461975","0.0-32.0-3.12","","","img_on","","","","","",""
"null","<div style=""font-size:60px;""> </div>","null","html-keyboard-response","144","462280","0.0-32.0-4.12","","","fixation_3","","","","","",""
"null","","null","html-keyboard-response","145","462286","0.0-32.0-5.12","","","test","rightarrow","0","1","FALSE","FALSE",""
"null","<div style=""font-size:60px;""> </div>","null","html-keyboard-response","146","462590","0.0-32.0-6.12","","","fixation_4","","","","","",""
"318","arrows.png","39","image-keyboard-response","147","462907","0.0-32.0-7.12","","","test","rightarrow","0","1","FALSE","FALSE","true"
"null","<p style=""color: green; font-size:300%;"">correct: $2.50</p>","null","html-keyboard-response","148","464166","0.0-32.0-8.12","","","","","","","","",""
"null","<div style=""font-size:60px;""> </div>","null","html-keyboard-response","149","465475","0.0-32.0-0.13","","","fixation_1","","","","","",""
"null","","null","image-keyboard-response","150","465481","0.0-32.0-1.13","","","test","downarrow","1","1","FALSE","FALSE",""
"null","<div style=""font-size:60px;""> </div>","null","html-keyboard-response","151","465786","0.0-32.0-2.13","","","fixation_2","","","","","",""
"null","img_2.bmp","null","image-keyboard-response","152","466790","0.0-32.0-3.13","","","img_on","","","","","",""
"null","<div style=""font-size:60px;""> </div>","null","html-keyboard-response","153","467095","0.0-32.0-4.13","","","fixation_3","","","","","",""
"null","","null","html-keyboard-response","154","467100","0.0-32.0-5.13","","","test","downarrow","1","1","FALSE","FALSE",""
"null","<div style=""font-size:60px;""> </div>","null","html-keyboard-response","155","467405","0.0-32.0-6.13","","","fixation_4","","","","","",""
"332","arrows.png","40","image-keyboard-response","156","467738","0.0-32.0-7.13","","","test","downarrow","1","1","FALSE","FALSE","true"
"null","<p style=""color: green; font-size:300%;"">correct: $7.50</p>","null","html-keyboard-response","157","468993","0.0-32.0-8.13","","","","","","","","",""
"null","<div style=""font-size:60px;""> </div>","null","html-keyboard-response","158","469551","0.0-32.0-0.14","","","fixation_1","","","","","",""
"null","","null","image-keyboard-response","159","469556","0.0-32.0-1.14","","","test","leftarrow","1","1","FALSE","FALSE",""
"null","<div style=""font-size:60px;""> </div>","null","html-keyboard-response","160","469861","0.0-32.0-2.14","","","fixation_2","","","","","",""
"null","img_3.bmp","null","image-keyboard-response","161","470865","0.0-32.0-3.14","","","img_on","","","","","",""
"null","<div style=""font-size:60px;""> </div>","null","html-keyboard-response","162","471170","0.0-32.0-4.14","","","fixation_3","","","","","",""
"null","","null","html-keyboard-response","163","471174","0.0-32.0-5.14","","","test","leftarrow","1","1","FALSE","FALSE",""
"null","<div style=""font-size:60px;""> </div>","null","html-keyboard-response","164","471478","0.0-32.0-6.14","","","fixation_4","","","","","",""
"369","arrows.png","37","image-keyboard-response","165","471847","0.0-32.0-7.14","","","test","leftarrow","1","1","FALSE","FALSE","true"
"null","<p style=""color: green; font-size:300%;"">correct: $7.50</p>","null","html-keyboard-response","166","473103","0.0-32.0-8.14","","","","","","","","",""
"null","<div style=""font-size:60px;""> </div>","null","html-keyboard-response","167","474162","0.0-32.0-0.15","","","fixation_1","","","","","",""
"null","","null","image-keyboard-response","168","474168","0.0-32.0-1.15","","","test","uparrow","0","1","FALSE","FALSE",""
"null","<div style=""font-size:60px;""> </div>","null","html-keyboard-response","169","474473","0.0-32.0-2.15","","","fixation_2","","","","","",""
"null","img_4.bmp","null","image-keyboard-response","170","475477","0.0-32.0-3.15","","","img_on","","","","","",""
"null","<div style=""font-size:60px;""> </div>","null","html-keyboard-response","171","475782","0.0-32.0-4.15","","","fixation_3","","","","","",""
"null","","null","html-keyboard-response","172","475787","0.0-32.0-5.15","","","test","uparrow","0","1","FALSE","FALSE",""
"null","<div style=""font-size:60px;""> </div>","null","html-keyboard-response","173","476092","0.0-32.0-6.15","","","fixation_4","","","","","",""
"435","arrows.png","38","image-keyboard-response","174","476528","0.0-32.0-7.15","","","test","uparrow","0","1","FALSE","FALSE","true"
"null","<p style=""color: green; font-size:300%;"">correct: $2.50</p>","null","html-keyboard-response","175","477788","0.0-32.0-8.15","","","","","","","","",""
"null","<div style=""font-size:60px;""> </div>","null","html-keyboard-response","176","479094","0.0-32.0-0.16","","","fixation_1","","","","","",""
"null","","null","image-keyboard-response","177","479099","0.0-32.0-1.16","","","test","uparrow","0","1","FALSE","FALSE",""
"null","<div style=""font-size:60px;""> </div>","null","html-keyboard-response","178","479401","0.0-32.0-2.16","","","fixation_2","","","","","",""
"null","img_4.bmp","null","image-keyboard-response","179","480405","0.0-32.0-3.16","","","img_on","","","","","",""
"null","<div style=""font-size:60px;""> </div>","null","html-keyboard-response","180","480710","0.0-32.0-4.16","","","fixation_3","","","","","",""
"null","","null","html-keyboard-response","181","480715","0.0-32.0-5.16","","","test","uparrow","0","1","FALSE","FALSE",""
"null","<div style=""font-size:60px;""> </div>","null","html-keyboard-response","182","481021","0.0-32.0-6.16","","","fixation_4","","","","","",""
"397","arrows.png","38","image-keyboard-response","183","481418","0.0-32.0-7.16","","","test","uparrow","0","1","FALSE","FALSE","true"
"null","<p style=""color: green; font-size:300%;"">correct: $2.50</p>","null","html-keyboard-response","184","482675","0.0-32.0-8.16","","","","","","","","",""
"null","<div style=""font-size:60px;""> </div>","null","html-keyboard-response","185","483734","0.0-32.0-0.17","","","fixation_1","","","","","",""
"null","","null","image-keyboard-response","186","483740","0.0-32.0-1.17","","","test","leftarrow","1","1","FALSE","FALSE",""
"null","<div style=""font-size:60px;""> </div>","null","html-keyboard-response","187","484045","0.0-32.0-2.17","","","fixation_2","","","","","",""
"null","img_3.bmp","null","image-keyboard-response","188","485049","0.0-32.0-3.17","","","img_on","","","","","",""
"null","<div style=""font-size:60px;""> </div>","null","html-keyboard-response","189","485351","0.0-32.0-4.17","","","fixation_3","","","","","",""
"null","","null","html-keyboard-response","190","485357","0.0-32.0-5.17","","","test","leftarrow","1","1","FALSE","FALSE",""
"null","<div style=""font-size:60px;""> </div>","null","html-keyboard-response","191","485661","0.0-32.0-6.17","","","fixation_4","","","","","",""
"421","arrows.png","37","image-keyboard-response","192","486083","0.0-32.0-7.17","","","test","leftarrow","1","1","FALSE","FALSE","true"
"null","<p style=""color: green; font-size:300%;"">correct: $7.50</p>","null","html-keyboard-response","193","487342","0.0-32.0-8.17","","","","","","","","",""
"null","<div style=""font-size:60px;""> </div>","null","html-keyboard-response","194","488651","0.0-32.0-0.18","","","fixation_1","","","","","",""
"null","switch_cue.png","null","image-keyboard-response","195","489656","0.0-32.0-1.18","","","test","rightarrow","0","1","TRUE","TRUE",""
"null","<div style=""font-size:60px;""> </div>","null","html-keyboard-response","196","489960","0.0-32.0-2.18","","","fixation_2","","","","","",""
"null","img_1.bmp","null","image-keyboard-response","197","490964","0.0-32.0-3.18","","","img_on","","","","","",""
"null","<div style=""font-size:60px;""> </div>","null","html-keyboard-response","198","491266","0.0-32.0-4.18","","","fixation_3","","","","","",""
"null","<img src=""CC1.png"" width=200 height=200/>","null","html-keyboard-response","199","492270","0.0-32.0-5.18","","","test","rightarrow","0","1","TRUE","TRUE",""
"null","<div style=""font-size:60px;""> </div>","null","html-keyboard-response","200","492575","0.0-32.0-6.18","","","fixation_4","","","","","",""
"302","arrows.png","39","image-keyboard-response","201","492878","0.0-32.0-7.18","","","test","rightarrow","0","1","TRUE","TRUE","true"
"null","<p style=""color: green; font-size:300%;"">correct: $2.50</p>","null","html-keyboard-response","202","494134","0.0-32.0-8.18","","","","","","","","",""
"null","<div style=""font-size:60px;""> </div>","null","html-keyboard-response","203","494943","0.0-32.0-0.19","","","fixation_1","","","","","",""
"null","switch_cue.png","null","image-keyboard-response","204","495948","0.0-32.0-1.19","","","test","downarrow","1","1","TRUE","TRUE",""
"null","<div style=""font-size:60px;""> </div>","null","html-keyboard-response","205","496250","0.0-32.0-2.19","","","fixation_2","","","","","",""
"null","img_2.bmp","null","image-keyboard-response","206","497254","0.0-32.0-3.19","","","img_on","","","","","",""
"null","<div style=""font-size:60px;""> </div>","null","html-keyboard-response","207","497559","0.0-32.0-4.19","","","fixation_3","","","","","",""
"null","<img src=""CC1.png"" width=200 height=200/>","null","html-keyboard-response","208","498563","0.0-32.0-5.19","","","test","downarrow","1","1","TRUE","TRUE",""
"null","<div style=""font-size:60px;""> </div>","null","html-keyboard-response","209","498868","0.0-32.0-6.19","","","fixation_4","","","","","",""
"280","arrows.png","40","image-keyboard-response","210","499148","0.0-32.0-7.19","","","test","downarrow","1","1","TRUE","TRUE","true"
"null","<p style=""color: green; font-size:300%;"">correct: $7.50</p>","null","html-keyboard-response","211","500406","0.0-32.0-8.19","","","","","","","","",""
"null","<div style=""font-size:60px;""> </div>","null","html-keyboard-response","212","501213","0.0-32.0-0.20","","","fixation_1","","","","","",""
"null","switch_cue.png","null","image-keyboard-response","213","502215","0.0-32.0-1.20","","","test","downarrow","0","2","TRUE","TRUE",""
"null","<div style=""font-size:60px;""> </div>","null","html-keyboard-response","214","502516","0.0-32.0-2.20","","","fixation_2","","","","","",""
"null","img_3.bmp","null","image-keyboard-response","215","503521","0.0-32.0-3.20","","","img_on","","","","","",""
"null","<div style=""font-size:60px;""> </div>","null","html-keyboard-response","216","503825","0.0-32.0-4.20","","","fixation_3","","","","","",""
"null","<img src=""CC2.png"" width=200 height=200/>","null","html-keyboard-response","217","504829","0.0-32.0-5.20","","","test","downarrow","0","2","TRUE","TRUE",""
"null","<div style=""font-size:60px;""> </div>","null","html-keyboard-response","218","505134","0.0-32.0-6.20","","","fixation_4","","","","","",""
"403","arrows.png","38","image-keyboard-response","219","505538","0.0-32.0-7.20","","","test","downarrow","0","2","TRUE","TRUE","false"
"null","<p style=""color: red; font-size:300%;"">incorrect: $0</p>","null","html-keyboard-response","220","506797","0.0-32.0-8.20","","","","","","","","",""
"null","<div style=""font-size:60px;""> </div>","null","html-keyboard-response","221","507357","0.0-32.0-0.21","","","fixation_1","","","","","",""
"null","","null","image-keyboard-response","222","507363","0.0-32.0-1.21","","","test","uparrow","1","2","TRUE","FALSE",""
"null","<div style=""font-size:60px;""> </div>","null","html-keyboard-response","223","507665","0.0-32.0-2.21","","","fixation_2","","","","","",""
"null","img_1.bmp","null","image-keyboard-response","224","508670","0.0-32.0-3.21","","","img_on","","","","","",""
"null","<div style=""font-size:60px;""> </div>","null","html-keyboard-response","225","508974","0.0-32.0-4.21","","","fixation_3","","","","","",""
"null","<img src=""CC2.png"" width=200 height=200/>","null","html-keyboard-response","226","509975","0.0-32.0-5.21","","","test","uparrow","1","2","TRUE","FALSE",""
"null","<div style=""font-size:60px;""> </div>","null","html-keyboard-response","227","510280","0.0-32.0-6.21","","","fixation_4","","","","","",""
"508","arrows.png","40","image-keyboard-response","228","510789","0.0-32.0-7.21","","","test","uparrow","1","2","TRUE","FALSE","false"
"null","<p style=""color: red; font-size:300%;"">incorrect: $0</p>","null","html-keyboard-response","229","512047","0.0-32.0-8.21","","","","","","","","",""
"null","<div style=""font-size:60px;""> </div>","null","html-keyboard-response","230","513604","0.0-32.0-0.22","","","fixation_1","","","","","",""
"null","","null","image-keyboard-response","231","513608","0.0-32.0-1.22","","","test","leftarrow","0","2","TRUE","FALSE",""
"null","<div style=""font-size:60px;""> </div>","null","html-keyboard-response","232","513910","0.0-32.0-2.22","","","fixation_2","","","","","",""
"null","img_4.bmp","null","image-keyboard-response","233","514913","0.0-32.0-3.22","","","img_on","","","","","",""
"null","<div style=""font-size:60px;""> </div>","null","html-keyboard-response","234","515216","0.0-32.0-4.22","","","fixation_3","","","","","",""
"null","<img src=""CC2.png"" width=200 height=200/>","null","html-keyboard-response","235","516222","0.0-32.0-5.22","","","test","leftarrow","0","2","TRUE","FALSE",""
"null","<div style=""font-size:60px;""> </div>","null","html-keyboard-response","236","516527","0.0-32.0-6.22","","","fixation_4","","","","","",""
"485","arrows.png","40","image-keyboard-response","237","517013","0.0-32.0-7.22","","","test","leftarrow","0","2","TRUE","FALSE","false"
"null","<p style=""color: red; font-size:300%;"">incorrect: $0</p>","null","html-keyboard-response","238","518270","0.0-32.0-8.22","","","","","","","","",""
"null","<div style=""font-size:60px;""> </div>","null","html-keyboard-response","239","519580","0.0-32.0-0.23","","","fixation_1","","","","","",""
"null","","null","image-keyboard-response","240","519585","0.0-32.0-1.23","","","test","rightarrow","1","2","TRUE","FALSE",""
"null","<div style=""font-size:60px;""> </div>","null","html-keyboard-response","241","519890","0.0-32.0-2.23","","","fixation_2","","","","","",""
"null","img_2.bmp","null","image-keyboard-response","242","520894","0.0-32.0-3.23","","","img_on","","","","","",""
"null","<div style=""font-size:60px;""> </div>","null","html-keyboard-response","243","521196","0.0-32.0-4.23","","","fixation_3","","","","","",""
"null","<img src=""CC2.png"" width=200 height=200/>","null","html-keyboard-response","244","522200","0.0-32.0-5.23","","","test","rightarrow","1","2","TRUE","FALSE",""
"null","<div style=""font-size:60px;""> </div>","null","html-keyboard-response","245","522505","0.0-32.0-6.23","","","fixation_4","","","","","",""
"344","arrows.png","39","image-keyboard-response","246","522848","0.0-32.0-7.23","","","test","rightarrow","1","2","TRUE","FALSE","true"
"null","<p style=""color: green; font-size:300%;"">correct: $7.50</p>","null","html-keyboard-response","247","524107","0.0-32.0-8.23","","","","","","","","",""
"null","<div style=""font-size:60px;""> </div>","null","html-keyboard-response","248","525416","0.0-32.0-0.24","","","fixation_1","","","","","",""
"null","","null","image-keyboard-response","249","525422","0.0-32.0-1.24","","","test","uparrow","1","2","FALSE","FALSE",""
"null","<div style=""font-size:60px;""> </div>","null","html-keyboard-response","250","525724","0.0-32.0-2.24","","","fixation_2","","","","","",""
"null","img_1.bmp","null","image-keyboard-response","251","526728","0.0-32.0-3.24","","","img_on","","","","","",""
"null","<div style=""font-size:60px;""> </div>","null","html-keyboard-response","252","527032","0.0-32.0-4.24","","","fixation_3","","","","","",""
"null","","null","html-keyboard-response","253","527037","0.0-32.0-5.24","","","test","uparrow","1","2","FALSE","FALSE",""
"null","<div style=""font-size:60px;""> </div>","null","html-keyboard-response","254","527342","0.0-32.0-6.24","","","fixation_4","","","","","",""
"545","arrows.png","37","image-keyboard-response","255","527889","0.0-32.0-7.24","","","test","uparrow","1","2","FALSE","FALSE","false"
"null","<p style=""color: red; font-size:300%;"">incorrect: $0</p>","null","html-keyboard-response","256","529145","0.0-32.0-8.24","","","","","","","","",""
"null","<div style=""font-size:60px;""> </div>","null","html-keyboard-response","257","530704","0.0-32.0-0.25","","","fixation_1","","","","","",""
"null","","null","image-keyboard-response","258","530709","0.0-32.0-1.25","","","test","downarrow","0","2","FALSE","FALSE",""
"null","<div style=""font-size:60px;""> </div>","null","html-keyboard-response","259","531012","0.0-32.0-2.25","","","fixation_2","","","","","",""
"null","img_3.bmp","null","image-keyboard-response","260","532016","0.0-32.0-3.25","","","img_on","","","","","",""
"null","<div style=""font-size:60px;""> </div>","null","html-keyboard-response","261","532318","0.0-32.0-4.25","","","fixation_3","","","","","",""
"null","","null","html-keyboard-response","262","532323","0.0-32.0-5.25","","","test","downarrow","0","2","FALSE","FALSE",""
"null","<div style=""font-size:60px;""> </div>","null","html-keyboard-response","263","532626","0.0-32.0-6.25","","","fixation_4","","","","","",""
"617","arrows.png","38","image-keyboard-response","264","533244","0.0-32.0-7.25","","","test","downarrow","0","2","FALSE","FALSE","false"
"null","<p style=""color: red; font-size:300%;"">incorrect: $0</p>","null","html-keyboard-response","265","534499","0.0-32.0-8.25","","","","","","","","",""
"null","<div style=""font-size:60px;""> </div>","null","html-keyboard-response","266","535054","0.0-32.0-0.26","","","fixation_1","","","","","",""
"null","","null","image-keyboard-response","267","535059","0.0-32.0-1.26","","","test","leftarrow","0","2","FALSE","FALSE",""
"null","<div style=""font-size:60px;""> </div>","null","html-keyboard-response","268","535363","0.0-32.0-2.26","","","fixation_2","","","","","",""
"null","img_4.bmp","null","image-keyboard-response","269","536364","0.0-32.0-3.26","","","img_on","","","","","",""
"null","<div style=""font-size:60px;""> </div>","null","html-keyboard-response","270","536665","0.0-32.0-4.26","","","fixation_3","","","","","",""
"null","","null","html-keyboard-response","271","536670","0.0-32.0-5.26","","","test","leftarrow","0","2","FALSE","FALSE",""
"null","<div style=""font-size:60px;""> </div>","null","html-keyboard-response","272","536975","0.0-32.0-6.26","","","fixation_4","","","","","",""
"572","arrows.png","40","image-keyboard-response","273","537549","0.0-32.0-7.26","","","test","leftarrow","0","2","FALSE","FALSE","false"
"null","<p style=""color: red; font-size:300%;"">incorrect: $0</p>","null","html-keyboard-response","274","538807","0.0-32.0-8.26","","","","","","","","",""
"null","<div style=""font-size:60px;""> </div>","null","html-keyboard-response","275","539861","0.0-32.0-0.27","","","fixation_1","","","","","",""
"null","","null","image-keyboard-response","276","539866","0.0-32.0-1.27","","","test","rightarrow","1","2","FALSE","FALSE",""
"null","<div style=""font-size:60px;""> </div>","null","html-keyboard-response","277","540171","0.0-32.0-2.27","","","fixation_2","","","","","",""
"null","img_2.bmp","null","image-keyboard-response","278","541173","0.0-32.0-3.27","","","img_on","","","","","",""
"null","<div style=""font-size:60px;""> </div>","null","html-keyboard-response","279","541473","0.0-32.0-4.27","","","fixation_3","","","","","",""
"null","","null","html-keyboard-response","280","541477","0.0-32.0-5.27","","","test","rightarrow","1","2","FALSE","FALSE",""
"null","<div style=""font-size:60px;""> </div>","null","html-keyboard-response","281","541780","0.0-32.0-6.27","","","fixation_4","","","","","",""
"658","arrows.png","37","image-keyboard-response","282","542439","0.0-32.0-7.27","","","test","rightarrow","1","2","FALSE","FALSE","false"
"null","<p style=""color: red; font-size:300%;"">incorrect: $0</p>","null","html-keyboard-response","283","543695","0.0-32.0-8.27","","","","","","","","",""
"null","<div style=""font-size:60px;""> </div>","null","html-keyboard-response","284","545254","0.0-32.0-0.28","","","fixation_1","","","","","",""
"null","","null","image-keyboard-response","285","545259","0.0-32.0-1.28","","","test","uparrow","1","2","FALSE","FALSE",""
"null","<div style=""font-size:60px;""> </div>","null","html-keyboard-response","286","545560","0.0-32.0-2.28","","","fixation_2","","","","","",""
"null","img_1.bmp","null","image-keyboard-response","287","546563","0.0-32.0-3.28","","","img_on","","","","","",""
"null","<div style=""font-size:60px;""> </div>","null","html-keyboard-response","288","546868","0.0-32.0-4.28","","","fixation_3","","","","","",""
"null","","null","html-keyboard-response","289","546873","0.0-32.0-5.28","","","test","uparrow","1","2","FALSE","FALSE",""
"null","<div style=""font-size:60px;""> </div>","null","html-keyboard-response","290","547175","0.0-32.0-6.28","","","fixation_4","","","","","",""
"828","arrows.png","40","image-keyboard-response","291","548004","0.0-32.0-7.28","","","test","uparrow","1","2","FALSE","FALSE","false"
"null","<p style=""color: red; font-size:300%;"">incorrect: $0</p>","null","html-keyboard-response","292","549262","0.0-32.0-8.28","","","","","","","","",""
"null","<div style=""font-size:60px;""> </div>","null","html-keyboard-response","293","550819","0.0-32.0-0.29","","","fixation_1","","","","","",""
"null","","null","image-keyboard-response","294","550824","0.0-32.0-1.29","","","test","downarrow","0","2","FALSE","FALSE",""
"null","<div style=""font-size:60px;""> </div>","null","html-keyboard-response","295","551128","0.0-32.0-2.29","","","fixation_2","","","","","",""
"null","img_3.bmp","null","image-keyboard-response","296","552133","0.0-32.0-3.29","","","img_on","","","","","",""
"null","<div style=""font-size:60px;""> </div>","null","html-keyboard-response","297","552438","0.0-32.0-4.29","","","fixation_3","","","","","",""
"null","","null","html-keyboard-response","298","552443","0.0-32.0-5.29","","","test","downarrow","0","2","FALSE","FALSE",""
"null","<div style=""font-size:60px;""> </div>","null","html-keyboard-response","299","552747","0.0-32.0-6.29","","","fixation_4","","","","","",""
"612","arrows.png","39","image-keyboard-response","300","553359","0.0-32.0-7.29","","","test","downarrow","0","2","FALSE","FALSE","false"
"null","<p style=""color: red; font-size:300%;"">incorrect: $0</p>","null","html-keyboard-response","301","554616","0.0-32.0-8.29","","","","","","","","",""
"null","<div style=""font-size:60px;""> </div>","null","html-keyboard-response","302","555672","0.0-32.0-0.30","","","fixation_1","","","","","",""
"null","","null","image-keyboard-response","303","555677","0.0-32.0-1.30","","","test","rightarrow","1","2","FALSE","FALSE",""
"null","<div style=""font-size:60px;""> </div>","null","html-keyboard-response","304","555981","0.0-32.0-2.30","","","fixation_2","","","","","",""
"null","img_2.bmp","null","image-keyboard-response","305","556984","0.0-32.0-3.30","","","img_on","","","","","",""
"null","<div style=""font-size:60px;""> </div>","null","html-keyboard-response","306","557288","0.0-32.0-4.30","","","fixation_3","","","","","",""
"null","","null","html-keyboard-response","307","557292","0.0-32.0-5.30","","","test","rightarrow","1","2","FALSE","FALSE",""
"null","<div style=""font-size:60px;""> </div>","null","html-keyboard-response","308","557598","0.0-32.0-6.30","","","fixation_4","","","","","",""
"1206","arrows.png","39","image-keyboard-response","309","558805","0.0-32.0-7.30","","","test","rightarrow","1","2","FALSE","FALSE","true"
"null","<p style=""color: green; font-size:300%;"">correct: $7.50</p>","null","html-keyboard-response","310","560065","0.0-32.0-8.30","","","","","","","","",""
"null","<div style=""font-size:60px;""> </div>","null","html-keyboard-response","311","561624","0.0-32.0-0.31","","","fixation_1","","","","","",""
"null","","null","image-keyboard-response","312","561629","0.0-32.0-1.31","","","test","leftarrow","0","2","FALSE","FALSE",""
"null","<div style=""font-size:60px;""> </div>","null","html-keyboard-response","313","561931","0.0-32.0-2.31","","","fixation_2","","","","","",""
"null","img_4.bmp","null","image-keyboard-response","314","562936","0.0-32.0-3.31","","","img_on","","","","","",""
"null","<div style=""font-size:60px;""> </div>","null","html-keyboard-response","315","563242","0.0-32.0-4.31","","","fixation_3","","","","","",""
"null","","null","html-keyboard-response","316","563246","0.0-32.0-5.31","","","test","leftarrow","0","2","FALSE","FALSE",""
"null","<div style=""font-size:60px;""> </div>","null","html-keyboard-response","317","563551","0.0-32.0-6.31","","","fixation_4","","","","","",""
"592","arrows.png","37","image-keyboard-response","318","564145","0.0-32.0-7.31","","","test","leftarrow","0","2","FALSE","FALSE","true"
"null","<p style=""color: green; font-size:300%;"">correct: $2.50</p>","null","html-keyboard-response","319","565400","0.0-32.0-8.31","","","","","","","","",""
"null","<div style=""font-size:60px;""> </div>","null","html-keyboard-response","320","566709","0.0-32.0-0.32","","","fixation_1","","","","","",""
"null","","null","image-keyboard-response","321","566714","0.0-32.0-1.32","","","test","leftarrow","0","2","FALSE","FALSE",""
"null","<div style=""font-size:60px;""> </div>","null","html-keyboard-response","322","567017","0.0-32.0-2.32","","","fixation_2","","","","","",""
"null","img_4.bmp","null","image-keyboard-response","323","568018","0.0-32.0-3.32","","","img_on","","","","","",""
"null","<div style=""font-size:60px;""> </div>","null","html-keyboard-response","324","568319","0.0-32.0-4.32","","","fixation_3","","","","","",""
"null","","null","html-keyboard-response","325","568325","0.0-32.0-5.32","","","test","leftarrow","0","2","FALSE","FALSE",""
"null","<div style=""font-size:60px;""> </div>","null","html-keyboard-response","326","568627","0.0-32.0-6.32","","","fixation_4","","","","","",""
"316","arrows.png","37","image-keyboard-response","327","568944","0.0-32.0-7.32","","","test","leftarrow","0","2","FALSE","FALSE","true"
"null","<p style=""color: green; font-size:300%;"">correct: $2.50</p>","null","html-keyboard-response","328","570200","0.0-32.0-8.32","","","","","","","","",""
"null","<div style=""font-size:60px;""> </div>","null","html-keyboard-response","329","570751","0.0-32.0-0.33","","","fixation_1","","","","","",""
"null","","null","image-keyboard-response","330","570757","0.0-32.0-1.33","","","test","uparrow","1","2","FALSE","FALSE",""
"null","<div style=""font-size:60px;""> </div>","null","html-keyboard-response","331","571062","0.0-32.0-2.33","","","fixation_2","","","","","",""
"null","img_1.bmp","null","image-keyboard-response","332","572067","0.0-32.0-3.33","","","img_on","","","","","",""
"null","<div style=""font-size:60px;""> </div>","null","html-keyboard-response","333","572372","0.0-32.0-4.33","","","fixation_3","","","","","",""
"null","","null","html-keyboard-response","334","572377","0.0-32.0-5.33","","","test","uparrow","1","2","FALSE","FALSE",""
"null","<div style=""font-size:60px;""> </div>","null","html-keyboard-response","335","572679","0.0-32.0-6.33","","","fixation_4","","","","","",""
"433","arrows.png","38","image-keyboard-response","336","573115","0.0-32.0-7.33","","","test","uparrow","1","2","FALSE","FALSE","true"
"null","<p style=""color: green; font-size:300%;"">correct: $7.50</p>","null","html-keyboard-response","337","574373","0.0-32.0-8.33","","","","","","","","",""
"null","<div style=""font-size:60px;""> </div>","null","html-keyboard-response","338","575430","0.0-32.0-0.34","","","fixation_1","","","","","",""
"null","","null","image-keyboard-response","339","575435","0.0-32.0-1.34","","","test","rightarrow","1","2","FALSE","FALSE",""
"null","<div style=""font-size:60px;""> </div>","null","html-keyboard-response","340","575738","0.0-32.0-2.34","","","fixation_2","","","","","",""
"null","img_2.bmp","null","image-keyboard-response","341","576742","0.0-32.0-3.34","","","img_on","","","","","",""
"null","<div style=""font-size:60px;""> </div>","null","html-keyboard-response","342","577047","0.0-32.0-4.34","","","fixation_3","","","","","",""
"null","","null","html-keyboard-response","343","577052","0.0-32.0-5.34","","","test","rightarrow","1","2","FALSE","FALSE",""
"null","<div style=""font-size:60px;""> </div>","null","html-keyboard-response","344","577357","0.0-32.0-6.34","","","fixation_4","","","","","",""
"453","arrows.png","39","image-keyboard-response","345","577810","0.0-32.0-7.34","","","test","rightarrow","1","2","FALSE","FALSE","true"
"null","<p style=""color: green; font-size:300%;"">correct: $7.50</p>","null","html-keyboard-response","346","579067","0.0-32.0-8.34","","","","","","","","",""
"null","<div style=""font-size:60px;""> </div>","null","html-keyboard-response","347","579625","0.0-32.0-0.35","","","fixation_1","","","","","",""
"null","","null","image-keyboard-response","348","579630","0.0-32.0-1.35","","","test","downarrow","0","2","FALSE","FALSE",""
"null","<div style=""font-size:60px;""> </div>","null","html-keyboard-response","349","579935","0.0-32.0-2.35","","","fixation_2","","","","","",""
"null","img_3.bmp","null","image-keyboard-response","350","580937","0.0-32.0-3.35","","","img_on","","","","","",""
"null","<div style=""font-size:60px;""> </div>","null","html-keyboard-response","351","581240","0.0-32.0-4.35","","","fixation_3","","","","","",""
"null","","null","html-keyboard-response","352","581245","0.0-32.0-5.35","","","test","downarrow","0","2","FALSE","FALSE",""
"null","<div style=""font-size:60px;""> </div>","null","html-keyboard-response","353","581551","0.0-32.0-6.35","","","fixation_4","","","","","",""
"324","arrows.png","40","image-keyboard-response","354","581875","0.0-32.0-7.35","","","test","downarrow","0","2","FALSE","FALSE","true"
"null","<p style=""color: green; font-size:300%;"">correct: $2.50</p>","null","html-keyboard-response","355","583131","0.0-32.0-8.35","","","","","","","","",""
"null","<div style=""font-size:60px;""> </div>","null","html-keyboard-response","356","584190","0.0-32.0-0.36","","","fixation_1","","","","","",""
"null","","null","image-keyboard-response","357","584196","0.0-32.0-1.36","","","test","rightarrow","1","2","FALSE","FALSE",""
"null","<div style=""font-size:60px;""> </div>","null","html-keyboard-response","358","584501","0.0-32.0-2.36","","","fixation_2","","","","","",""
"null","img_2.bmp","null","image-keyboard-response","359","585502","0.0-32.0-3.36","","","img_on","","","","","",""
"null","<div style=""font-size:60px;""> </div>","null","html-keyboard-response","360","585806","0.0-32.0-4.36","","","fixation_3","","","","","",""
"null","","null","html-keyboard-response","361","585812","0.0-32.0-5.36","","","test","rightarrow","1","2","FALSE","FALSE",""
"null","<div style=""font-size:60px;""> </div>","null","html-keyboard-response","362","586116","0.0-32.0-6.36","","","fixation_4","","","","","",""
"393","arrows.png","39","image-keyboard-response","363","586509","0.0-32.0-7.36","","","test","rightarrow","1","2","FALSE","FALSE","true"
"null","<p style=""color: green; font-size:300%;"">correct: $7.50</p>","null","html-keyboard-response","364","587768","0.0-32.0-8.36","","","","","","","","",""
"null","<div style=""font-size:60px;""> </div>","null","html-keyboard-response","365","588823","0.0-32.0-0.37","","","fixation_1","","","","","",""
"null","","null","image-keyboard-response","366","588828","0.0-32.0-1.37","","","test","uparrow","1","2","FALSE","FALSE",""
"null","<div style=""font-size:60px;""> </div>","null","html-keyboard-response","367","589130","0.0-32.0-2.37","","","fixation_2","","","","","",""
"null","img_1.bmp","null","image-keyboard-response","368","590134","0.0-32.0-3.37","","","img_on","","","","","",""
"null","<div style=""font-size:60px;""> </div>","null","html-keyboard-response","369","590436","0.0-32.0-4.37","","","fixation_3","","","","","",""
"null","","null","html-keyboard-response","370","590442","0.0-32.0-5.37","","","test","uparrow","1","2","FALSE","FALSE",""
"null","<div style=""font-size:60px;""> </div>","null","html-keyboard-response","371","590746","0.0-32.0-6.37","","","fixation_4","","","","","",""
"352","arrows.png","38","image-keyboard-response","372","591100","0.0-32.0-7.37","","","test","uparrow","1","2","FALSE","FALSE","true"
"null","<p style=""color: green; font-size:300%;"">correct: $7.50</p>","null","html-keyboard-response","373","592357","0.0-32.0-8.37","","","","","","","","",""
"null","<div style=""font-size:60px;""> </div>","null","html-keyboard-response","374","593417","0.0-32.0-0.38","","","fixation_1","","","","","",""
"null","","null","image-keyboard-response","375","593421","0.0-32.0-1.38","","","test","leftarrow","0","2","FALSE","FALSE",""
"null","<div style=""font-size:60px;""> </div>","null","html-keyboard-response","376","593726","0.0-32.0-2.38","","","fixation_2","","","","","",""
"null","img_4.bmp","null","image-keyboard-response","377","594729","0.0-32.0-3.38","","","img_on","","","","","",""
"null","<div style=""font-size:60px;""> </div>","null","html-keyboard-response","378","595033","0.0-32.0-4.38","","","fixation_3","","","","","",""
"null","","null","html-keyboard-response","379","595039","0.0-32.0-5.38","","","test","leftarrow","0","2","FALSE","FALSE",""
"null","<div style=""font-size:60px;""> </div>","null","html-keyboard-response","380","595343","0.0-32.0-6.38","","","fixation_4","","","","","",""
"333","arrows.png","37","image-keyboard-response","381","595675","0.0-32.0-7.38","","","test","leftarrow","0","2","FALSE","FALSE","true"
"null","<p style=""color: green; font-size:300%;"">correct: $2.50</p>","null","html-keyboard-response","382","596931","0.0-32.0-8.38","","","","","","","","",""
"null","<div style=""font-size:60px;""> </div>","null","html-keyboard-response","383","597990","0.0-32.0-0.39","","","fixation_1","","","","","",""
"null","","null","image-keyboard-response","384","597995","0.0-32.0-1.39","","","test","downarrow","0","2","FALSE","FALSE",""
"null","<div style=""font-size:60px;""> </div>","null","html-keyboard-response","385","598296","0.0-32.0-2.39","","","fixation_2","","","","","",""
"null","img_3.bmp","null","image-keyboard-response","386","599300","0.0-32.0-3.39","","","img_on","","","","","",""
"null","<div style=""font-size:60px;""> </div>","null","html-keyboard-response","387","599602","0.0-32.0-4.39","","","fixation_3","","","","","",""
"null","","null","html-keyboard-response","388","599606","0.0-32.0-5.39","","","test","downarrow","0","2","FALSE","FALSE",""
"null","<div style=""font-size:60px;""> </div>","null","html-keyboard-response","389","599909","0.0-32.0-6.39","","","fixation_4","","","","","",""
"428","arrows.png","40","image-keyboard-response","390","600340","0.0-32.0-7.39","","","test","downarrow","0","2","FALSE","FALSE","true"
"null","<p style=""color: green; font-size:300%;"">correct: $2.50</p>","null","html-keyboard-response","391","601593","0.0-32.0-8.39","","","","","","","","",""
"null","<div style=""font-size:60px;""> </div>","null","html-keyboard-response","392","603151","0.0-32.0-0.40","","","fixation_1","","","","","",""
"null","switch_cue.png","null","image-keyboard-response","393","604156","0.0-32.0-1.40","","","test","leftarrow","1","1","TRUE","TRUE",""
"null","<div style=""font-size:60px;""> </div>","null","html-keyboard-response","394","604458","0.0-32.0-2.40","","","fixation_2","","","","","",""
"null","img_3.bmp","null","image-keyboard-response","395","605462","0.0-32.0-3.40","","","img_on","","","","","",""
"null","<div style=""font-size:60px;""> </div>","null","html-keyboard-response","396","605767","0.0-32.0-4.40","","","fixation_3","","","","","",""
"null","<img src=""CC1.png"" width=200 height=200/>","null","html-keyboard-response","397","606771","0.0-32.0-5.40","","","test","leftarrow","1","1","TRUE","TRUE",""
"null","<div style=""font-size:60px;""> </div>","null","html-keyboard-response","398","607073","0.0-32.0-6.40","","","fixation_4","","","","","",""
"47","arrows.png","37","image-keyboard-response","399","607120","0.0-32.0-7.40","","","test","leftarrow","1","1","TRUE","TRUE","true"
"null","<p style=""color: green; font-size:300%;"">correct: $7.50</p>","null","html-keyboard-response","400","608379","0.0-32.0-8.40","","","","","","","","",""
"null","<div style=""font-size:60px;""> </div>","null","html-keyboard-response","401","609937","0.0-32.0-0.41","","","fixation_1","","","","","",""
"null","","null","image-keyboard-response","402","609943","0.0-32.0-1.41","","","test","uparrow","0","1","TRUE","FALSE",""
"null","<div style=""font-size:60px;""> </div>","null","html-keyboard-response","403","610248","0.0-32.0-2.41","","","fixation_2","","","","","",""
"null","img_4.bmp","null","image-keyboard-response","404","611254","0.0-32.0-3.41","","","img_on","","","","","",""
"null","<div style=""font-size:60px;""> </div>","null","html-keyboard-response","405","611557","0.0-32.0-4.41","","","fixation_3","","","","","",""
"null","<img src=""CC1.png"" width=200 height=200/>","null","html-keyboard-response","406","612562","0.0-32.0-5.41","","","test","uparrow","0","1","TRUE","FALSE",""
"null","<div style=""font-size:60px;""> </div>","null","html-keyboard-response","407","612863","0.0-32.0-6.41","","","fixation_4","","","","","",""
"331","arrows.png","38","image-keyboard-response","408","613196","0.0-32.0-7.41","","","test","uparrow","0","1","TRUE","FALSE","true"
"null","<p style=""color: green; font-size:300%;"">correct: $2.50</p>","null","html-keyboard-response","409","614450","0.0-32.0-8.41","","","","","","","","",""
"null","<div style=""font-size:60px;""> </div>","null","html-keyboard-response","410","615760","0.0-32.0-0.42","","","fixation_1","","","","","",""
"null","","null","image-keyboard-response","411","615765","0.0-32.0-1.42","","","test","downarrow","1","1","TRUE","FALSE",""
"null","<div style=""font-size:60px;""> </div>","null","html-keyboard-response","412","616067","0.0-32.0-2.42","","","fixation_2","","","","","",""
"null","img_2.bmp","null","image-keyboard-response","413","617071","0.0-32.0-3.42","","","img_on","","","","","",""
"null","<div style=""font-size:60px;""> </div>","null","html-keyboard-response","414","617376","0.0-32.0-4.42","","","fixation_3","","","","","",""
"null","<img src=""CC1.png"" width=200 height=200/>","null","html-keyboard-response","415","618378","0.0-32.0-5.42","","","test","downarrow","1","1","TRUE","FALSE",""
"null","<div style=""font-size:60px;""> </div>","null","html-keyboard-response","416","618682","0.0-32.0-6.42","","","fixation_4","","","","","",""
"632","arrows.png","40","image-keyboard-response","417","619315","0.0-32.0-7.42","","","test","downarrow","1","1","TRUE","FALSE","true"
"null","<p style=""color: green; font-size:300%;"">correct: $7.50</p>","null","html-keyboard-response","418","620571","0.0-32.0-8.42","","","","","","","","",""
"null","<div style=""font-size:60px;""> </div>","null","html-keyboard-response","419","622128","0.0-32.0-0.43","","","fixation_1","","","","","",""
"null","","null","image-keyboard-response","420","622133","0.0-32.0-1.43","","","test","rightarrow","0","1","TRUE","FALSE",""
"null","<div style=""font-size:60px;""> </div>","null","html-keyboard-response","421","622438","0.0-32.0-2.43","","","fixation_2","","","","","",""
"null","img_1.bmp","null","image-keyboard-response","422","623442","0.0-32.0-3.43","","","img_on","","","","","",""
"null","<div style=""font-size:60px;""> </div>","null","html-keyboard-response","423","623747","0.0-32.0-4.43","","","fixation_3","","","","","",""
"null","<img src=""CC1.png"" width=200 height=200/>","null","html-keyboard-response","424","624752","0.0-32.0-5.43","","","test","rightarrow","0","1","TRUE","FALSE",""
"null","<div style=""font-size:60px;""> </div>","null","html-keyboard-response","425","625055","0.0-32.0-6.43","","","fixation_4","","","","","",""
"320","arrows.png","39","image-keyboard-response","426","625376","0.0-32.0-7.43","","","test","rightarrow","0","1","TRUE","FALSE","true"
"null","<p style=""color: green; font-size:300%;"">correct: $2.50</p>","null","html-keyboard-response","427","626635","0.0-32.0-8.43","","","","","","","","",""
"null","<div style=""font-size:60px;""> </div>","null","html-keyboard-response","428","627193","0.0-32.0-0.44","","","fixation_1","","","","","",""
"null","","null","image-keyboard-response","429","627199","0.0-32.0-1.44","","","test","uparrow","0","1","FALSE","FALSE",""
"null","<div style=""font-size:60px;""> </div>","null","html-keyboard-response","430","627502","0.0-32.0-2.44","","","fixation_2","","","","","",""
"null","img_4.bmp","null","image-keyboard-response","431","628507","0.0-32.0-3.44","","","img_on","","","","","",""
"null","<div style=""font-size:60px;""> </div>","null","html-keyboard-response","432","628812","0.0-32.0-4.44","","","fixation_3","","","","","",""
"null","","null","html-keyboard-response","433","628817","0.0-32.0-5.44","","","test","uparrow","0","1","FALSE","FALSE",""
"null","<div style=""font-size:60px;""> </div>","null","html-keyboard-response","434","629117","0.0-32.0-6.44","","","fixation_4","","","","","",""
"367","arrows.png","38","image-keyboard-response","435","629486","0.0-32.0-7.44","","","test","uparrow","0","1","FALSE","FALSE","true"
"null","<p style=""color: green; font-size:300%;"">correct: $2.50</p>","null","html-keyboard-response","436","630745","0.0-32.0-8.44","","","","","","","","",""
"null","<div style=""font-size:60px;""> </div>","null","html-keyboard-response","437","631799","0.0-32.0-0.45","","","fixation_1","","","","","",""
"null","","null","image-keyboard-response","438","631805","0.0-32.0-1.45","","","test","downarrow","1","1","FALSE","FALSE",""
"null","<div style=""font-size:60px;""> </div>","null","html-keyboard-response","439","632109","0.0-32.0-2.45","","","fixation_2","","","","","",""
"null","img_2.bmp","null","image-keyboard-response","440","633113","0.0-32.0-3.45","","","img_on","","","","","",""
"null","<div style=""font-size:60px;""> </div>","null","html-keyboard-response","441","633418","0.0-32.0-4.45","","","fixation_3","","","","","",""
"null","","null","html-keyboard-response","442","633423","0.0-32.0-5.45","","","test","downarrow","1","1","FALSE","FALSE",""
"null","<div style=""font-size:60px;""> </div>","null","html-keyboard-response","443","633726","0.0-32.0-6.45","","","fixation_4","","","","","",""
"890","arrows.png","40","image-keyboard-response","444","634616","0.0-32.0-7.45","","","test","downarrow","1","1","FALSE","FALSE","true"
"null","<p style=""color: green; font-size:300%;"">correct: $7.50</p>","null","html-keyboard-response","445","635874","0.0-32.0-8.45","","","","","","","","",""
"null","<div style=""font-size:60px;""> </div>","null","html-keyboard-response","446","637429","0.0-32.0-0.46","","","fixation_1","","","","","",""
"null","","null","image-keyboard-response","447","637434","0.0-32.0-1.46","","","test","rightarrow","0","1","FALSE","FALSE",""
"null","<div style=""font-size:60px;""> </div>","null","html-keyboard-response","448","637739","0.0-32.0-2.46","","","fixation_2","","","","","",""
"null","img_1.bmp","null","image-keyboard-response","449","638741","0.0-32.0-3.46","","","img_on","","","","","",""
"null","<div style=""font-size:60px;""> </div>","null","html-keyboard-response","450","639046","0.0-32.0-4.46","","","fixation_3","","","","","",""
"null","","null","html-keyboard-response","451","639051","0.0-32.0-5.46","","","test","rightarrow","0","1","FALSE","FALSE",""
"null","<div style=""font-size:60px;""> </div>","null","html-keyboard-response","452","639355","0.0-32.0-6.46","","","fixation_4","","","","","",""
"690","arrows.png","39","image-keyboard-response","453","640046","0.0-32.0-7.46","","","test","rightarrow","0","1","FALSE","FALSE","true"
"null","<p style=""color: green; font-size:300%;"">correct: $2.50</p>","null","html-keyboard-response","454","641301","0.0-32.0-8.46","","","","","","","","",""
"null","<div style=""font-size:60px;""> </div>","null","html-keyboard-response","455","642609","0.0-32.0-0.47","","","fixation_1","","","","","",""
"null","","null","image-keyboard-response","456","642615","0.0-32.0-1.47","","","test","leftarrow","1","1","FALSE","FALSE",""
"null","<div style=""font-size:60px;""> </div>","null","html-keyboard-response","457","642917","0.0-32.0-2.47","","","fixation_2","","","","","",""
"null","img_3.bmp","null","image-keyboard-response","458","643922","0.0-32.0-3.47","","","img_on","","","","","",""
"null","<div style=""font-size:60px;""> </div>","null","html-keyboard-response","459","644227","0.0-32.0-4.47","","","fixation_3","","","","","",""
"null","","null","html-keyboard-response","460","644233","0.0-32.0-5.47","","","test","leftarrow","1","1","FALSE","FALSE",""
"null","<div style=""font-size:60px;""> </div>","null","html-keyboard-response","461","644537","0.0-32.0-6.47","","","fixation_4","","","","","",""
"383","arrows.png","37","image-keyboard-response","462","644920","0.0-32.0-7.47","","","test","leftarrow","1","1","FALSE","FALSE","true"
"null","<p style=""color: green; font-size:300%;"">correct: $7.50</p>","null","html-keyboard-response","463","646180","0.0-32.0-8.47","","","","","","","","",""
"null","<div style=""font-size:60px;""> </div>","null","html-keyboard-response","464","647240","0.0-32.0-0.48","","","fixation_1","","","","","",""
"null","","null","image-keyboard-response","465","647244","0.0-32.0-1.48","","","test","uparrow","0","1","FALSE","FALSE",""
"null","<div style=""font-size:60px;""> </div>","null","html-keyboard-response","466","647549","0.0-32.0-2.48","","","fixation_2","","","","","",""
"null","img_4.bmp","null","image-keyboard-response","467","648553","0.0-32.0-3.48","","","img_on","","","","","",""
"null","<div style=""font-size:60px;""> </div>","null","html-keyboard-response","468","648856","0.0-32.0-4.48","","","fixation_3","","","","","",""
"null","","null","html-keyboard-response","469","648861","0.0-32.0-5.48","","","test","uparrow","0","1","FALSE","FALSE",""
"null","<div style=""font-size:60px;""> </div>","null","html-keyboard-response","470","649166","0.0-32.0-6.48","","","fixation_4","","","","","",""
"464","arrows.png","38","image-keyboard-response","471","649631","0.0-32.0-7.48","","","test","uparrow","0","1","FALSE","FALSE","true"
"null","<p style=""color: green; font-size:300%;"">correct: $2.50</p>","null","html-keyboard-response","472","650888","0.0-32.0-8.48","","","","","","","","",""
"null","<div style=""font-size:60px;""> </div>","null","html-keyboard-response","473","652443","0.0-32.0-0.49","","","fixation_1","","","","","",""
"null","","null","image-keyboard-response","474","652449","0.0-32.0-1.49","","","test","downarrow","1","1","FALSE","FALSE",""
"null","<div style=""font-size:60px;""> </div>","null","html-keyboard-response","475","652754","0.0-32.0-2.49","","","fixation_2","","","","","",""
"null","img_2.bmp","null","image-keyboard-response","476","653757","0.0-32.0-3.49","","","img_on","","","","","",""
"null","<div style=""font-size:60px;""> </div>","null","html-keyboard-response","477","654057","0.0-32.0-4.49","","","fixation_3","","","","","",""
"null","","null","html-keyboard-response","478","654063","0.0-32.0-5.49","","","test","downarrow","1","1","FALSE","FALSE",""
"null","<div style=""font-size:60px;""> </div>","null","html-keyboard-response","479","654367","0.0-32.0-6.49","","","fixation_4","","","","","",""
"498","arrows.png","40","image-keyboard-response","480","654866","0.0-32.0-7.49","","","test","downarrow","1","1","FALSE","FALSE","true"
"null","<p style=""color: green; font-size:300%;"">correct: $7.50</p>","null","html-keyboard-response","481","656125","0.0-32.0-8.49","","","","","","","","",""
"null","<div style=""font-size:60px;""> </div>","null","html-keyboard-response","482","657184","0.0-32.0-0.50","","","fixation_1","","","","","",""
"null","","null","image-keyboard-response","483","657188","0.0-32.0-1.50","","","test","leftarrow","1","1","FALSE","FALSE",""
"null","<div style=""font-size:60px;""> </div>","null","html-keyboard-response","484","657492","0.0-32.0-2.50","","","fixation_2","","","","","",""
"null","img_3.bmp","null","image-keyboard-response","485","658497","0.0-32.0-3.50","","","img_on","","","","","",""
"null","<div style=""font-size:60px;""> </div>","null","html-keyboard-response","486","658803","0.0-32.0-4.50","","","fixation_3","","","","","",""
"null","","null","html-keyboard-response","487","658809","0.0-32.0-5.50","","","test","leftarrow","1","1","FALSE","FALSE",""
"null","<div style=""font-size:60px;""> </div>","null","html-keyboard-response","488","659113","0.0-32.0-6.50","","","fixation_4","","","","","",""
"402","arrows.png","37","image-keyboard-response","489","659516","0.0-32.0-7.50","","","test","leftarrow","1","1","FALSE","FALSE","true"
"null","<p style=""color: green; font-size:300%;"">correct: $7.50</p>","null","html-keyboard-response","490","660774","0.0-32.0-8.50","","","","","","","","",""
"null","<div style=""font-size:60px;""> </div>","null","html-keyboard-response","491","662082","0.0-32.0-0.51","","","fixation_1","","","","","",""
"null","","null","image-keyboard-response","492","662088","0.0-32.0-1.51","","","test","rightarrow","0","1","FALSE","FALSE",""
"null","<div style=""font-size:60px;""> </div>","null","html-keyboard-response","493","662393","0.0-32.0-2.51","","","fixation_2","","","","","",""
"null","img_1.bmp","null","image-keyboard-response","494","663398","0.0-32.0-3.51","","","img_on","","","","","",""
"null","<div style=""font-size:60px;""> </div>","null","html-keyboard-response","495","663700","0.0-32.0-4.51","","","fixation_3","","","","","",""
"null","","null","html-keyboard-response","496","663705","0.0-32.0-5.51","","","test","rightarrow","0","1","FALSE","FALSE",""
"null","<div style=""font-size:60px;""> </div>","null","html-keyboard-response","497","664010","0.0-32.0-6.51","","","fixation_4","","","","","",""
"305","arrows.png","39","image-keyboard-response","498","664316","0.0-32.0-7.51","","","test","rightarrow","0","1","FALSE","FALSE","true"
"null","<p style=""color: green; font-size:300%;"">correct: $2.50</p>","null","html-keyboard-response","499","665571","0.0-32.0-8.51","","","","","","","","",""
"null","<div style=""font-size:60px;""> </div>","null","html-keyboard-response","500","666879","0.0-32.0-0.52","","","fixation_1","","","","","",""
"null","switch_cue.png","null","image-keyboard-response","501","667885","0.0-32.0-1.52","","","test","uparrow","1","2","TRUE","TRUE",""
"null","<div style=""font-size:60px;""> </div>","null","html-keyboard-response","502","668188","0.0-32.0-2.52","","","fixation_2","","","","","",""
"null","img_1.bmp","null","image-keyboard-response","503","669191","0.0-32.0-3.52","","","img_on","","","","","",""
"null","<div style=""font-size:60px;""> </div>","null","html-keyboard-response","504","669491","0.0-32.0-4.52","","","fixation_3","","","","","",""
"null","<img src=""CC2.png"" width=200 height=200/>","null","html-keyboard-response","505","670496","0.0-32.0-5.52","","","test","uparrow","1","2","TRUE","TRUE",""
"null","<div style=""font-size:60px;""> </div>","null","html-keyboard-response","506","670799","0.0-32.0-6.52","","","fixation_4","","","","","",""
"222","arrows.png","38","image-keyboard-response","507","671021","0.0-32.0-7.52","","","test","uparrow","1","2","TRUE","TRUE","true"
"null","<p style=""color: green; font-size:300%;"">correct: $7.50</p>","null","html-keyboard-response","508","672279","0.0-32.0-8.52","","","","","","","","",""
"null","<div style=""font-size:60px;""> </div>","null","html-keyboard-response","509","673588","0.0-32.0-0.53","","","fixation_1","","","","","",""
"null","","null","image-keyboard-response","510","673593","0.0-32.0-1.53","","","test","rightarrow","1","2","TRUE","FALSE",""
"null","<div style=""font-size:60px;""> </div>","null","html-keyboard-response","511","673897","0.0-32.0-2.53","","","fixation_2","","","","","",""
"null","img_2.bmp","null","image-keyboard-response","512","674902","0.0-32.0-3.53","","","img_on","","","","","",""
"null","<div style=""font-size:60px;""> </div>","null","html-keyboard-response","513","675207","0.0-32.0-4.53","","","fixation_3","","","","","",""
"null","<img src=""CC2.png"" width=200 height=200/>","null","html-keyboard-response","514","676211","0.0-32.0-5.53","","","test","rightarrow","1","2","TRUE","FALSE",""
"null","<div style=""font-size:60px;""> </div>","null","html-keyboard-response","515","676516","0.0-32.0-6.53","","","fixation_4","","","","","",""
"384","arrows.png","39","image-keyboard-response","516","676901","0.0-32.0-7.53","","","test","rightarrow","1","2","TRUE","FALSE","true"
"null","<p style=""color: green; font-size:300%;"">correct: $7.50</p>","null","html-keyboard-response","517","678153","0.0-32.0-8.53","","","","","","","","",""
"null","<div style=""font-size:60px;""> </div>","null","html-keyboard-response","518","678712","0.0-32.0-0.54","","","fixation_1","","","","","",""
"null","","null","image-keyboard-response","519","678717","0.0-32.0-1.54","","","test","downarrow","0","2","TRUE","FALSE",""
"null","<div style=""font-size:60px;""> </div>","null","html-keyboard-response","520","679021","0.0-32.0-2.54","","","fixation_2","","","","","",""
"null","img_3.bmp","null","image-keyboard-response","521","680025","0.0-32.0-3.54","","","img_on","","","","","",""
"null","<div style=""font-size:60px;""> </div>","null","html-keyboard-response","522","680330","0.0-32.0-4.54","","","fixation_3","","","","","",""
"null","<img src=""CC2.png"" width=200 height=200/>","null","html-keyboard-response","523","681331","0.0-32.0-5.54","","","test","downarrow","0","2","TRUE","FALSE",""
"null","<div style=""font-size:60px;""> </div>","null","html-keyboard-response","524","681636","0.0-32.0-6.54","","","fixation_4","","","","","",""
"335","arrows.png","40","image-keyboard-response","525","681971","0.0-32.0-7.54","","","test","downarrow","0","2","TRUE","FALSE","true"
"null","<p style=""color: green; font-size:300%;"">correct: $2.50</p>","null","html-keyboard-response","526","683229","0.0-32.0-8.54","","","","","","","","",""
"null","<div style=""font-size:60px;""> </div>","null","html-keyboard-response","527","684531","0.0-32.0-0.55","","","fixation_1","","","","","",""
"null","","null","image-keyboard-response","528","684537","0.0-32.0-1.55","","","test","leftarrow","0","2","TRUE","FALSE",""
"null","<div style=""font-size:60px;""> </div>","null","html-keyboard-response","529","684840","0.0-32.0-2.55","","","fixation_2","","","","","",""
"null","img_4.bmp","null","image-keyboard-response","530","685841","0.0-32.0-3.55","","","img_on","","","","","",""
"null","<div style=""font-size:60px;""> </div>","null","html-keyboard-response","531","686146","0.0-32.0-4.55","","","fixation_3","","","","","",""
"null","<img src=""CC2.png"" width=200 height=200/>","null","html-keyboard-response","532","687152","0.0-32.0-5.55","","","test","leftarrow","0","2","TRUE","FALSE",""
"null","<div style=""font-size:60px;""> </div>","null","html-keyboard-response","533","687455","0.0-32.0-6.55","","","fixation_4","","","","","",""
"321","arrows.png","37","image-keyboard-response","534","687777","0.0-32.0-7.55","","","test","leftarrow","0","2","TRUE","FALSE","true"
"null","<p style=""color: green; font-size:300%;"">correct: $2.50</p>","null","html-keyboard-response","535","689036","0.0-32.0-8.55","","","","","","","","",""
"null","<div style=""font-size:60px;""> </div>","null","html-keyboard-response","536","690343","0.0-32.0-0.56","","","fixation_1","","","","","",""
"null","","null","image-keyboard-response","537","690349","0.0-32.0-1.56","","","test","downarrow","0","2","FALSE","FALSE",""
"null","<div style=""font-size:60px;""> </div>","null","html-keyboard-response","538","690652","0.0-32.0-2.56","","","fixation_2","","","","","",""
"null","img_3.bmp","null","image-keyboard-response","539","691656","0.0-32.0-3.56","","","img_on","","","","","",""
"null","<div style=""font-size:60px;""> </div>","null","html-keyboard-response","540","691960","0.0-32.0-4.56","","","fixation_3","","","","","",""
"null","","null","html-keyboard-response","541","691966","0.0-32.0-5.56","","","test","downarrow","0","2","FALSE","FALSE",""
"null","<div style=""font-size:60px;""> </div>","null","html-keyboard-response","542","692270","0.0-32.0-6.56","","","fixation_4","","","","","",""
"861","arrows.png","40","image-keyboard-response","543","693133","0.0-32.0-7.56","","","test","downarrow","0","2","FALSE","FALSE","true"
"null","<p style=""color: green; font-size:300%;"">correct: $2.50</p>","null","html-keyboard-response","544","694392","0.0-32.0-8.56","","","","","","","","",""
"null","<div style=""font-size:60px;""> </div>","null","html-keyboard-response","545","695202","0.0-32.0-0.57","","","fixation_1","","","","","",""
"null","","null","image-keyboard-response","546","695206","0.0-32.0-1.57","","","test","rightarrow","1","2","FALSE","FALSE",""
"null","<div style=""font-size:60px;""> </div>","null","html-keyboard-response","547","695512","0.0-32.0-2.57","","","fixation_2","","","","","",""
"null","img_2.bmp","null","image-keyboard-response","548","696516","0.0-32.0-3.57","","","img_on","","","","","",""
"null","<div style=""font-size:60px;""> </div>","null","html-keyboard-response","549","696821","0.0-32.0-4.57","","","fixation_3","","","","","",""
"null","","null","html-keyboard-response","550","696826","0.0-32.0-5.57","","","test","rightarrow","1","2","FALSE","FALSE",""
"null","<div style=""font-size:60px;""> </div>","null","html-keyboard-response","551","697131","0.0-32.0-6.57","","","fixation_4","","","","","",""
"455","arrows.png","39","image-keyboard-response","552","697588","0.0-32.0-7.57","","","test","rightarrow","1","2","FALSE","FALSE","true"
"null","<p style=""color: green; font-size:300%;"">correct: $7.50</p>","null","html-keyboard-response","553","698847","0.0-32.0-8.57","","","","","","","","",""
"null","<div style=""font-size:60px;""> </div>","null","html-keyboard-response","554","700156","0.0-32.0-0.58","","","fixation_1","","","","","",""
"null","","null","image-keyboard-response","555","700161","0.0-32.0-1.58","","","test","leftarrow","0","2","FALSE","FALSE",""
"null","<div style=""font-size:60px;""> </div>","null","html-keyboard-response","556","700466","0.0-32.0-2.58","","","fixation_2","","","","","",""
"null","img_4.bmp","null","image-keyboard-response","557","701471","0.0-32.0-3.58","","","img_on","","","","","",""
"null","<div style=""font-size:60px;""> </div>","null","html-keyboard-response","558","701775","0.0-32.0-4.58","","","fixation_3","","","","","",""
"null","","null","html-keyboard-response","559","701780","0.0-32.0-5.58","","","test","leftarrow","0","2","FALSE","FALSE",""
"null","<div style=""font-size:60px;""> </div>","null","html-keyboard-response","560","702084","0.0-32.0-6.58","","","fixation_4","","","","","",""
"378","arrows.png","37","image-keyboard-response","561","702462","0.0-32.0-7.58","","","test","leftarrow","0","2","FALSE","FALSE","true"
"null","<p style=""color: green; font-size:300%;"">correct: $2.50</p>","null","html-keyboard-response","562","703721","0.0-32.0-8.58","","","","","","","","",""
"null","<div style=""font-size:60px;""> </div>","null","html-keyboard-response","563","705030","0.0-32.0-0.59","","","fixation_1","","","","","",""
"null","","null","image-keyboard-response","564","705034","0.0-32.0-1.59","","","test","uparrow","1","2","FALSE","FALSE",""
"null","<div style=""font-size:60px;""> </div>","null","html-keyboard-response","565","705339","0.0-32.0-2.59","","","fixation_2","","","","","",""
"null","img_1.bmp","null","image-keyboard-response","566","706341","0.0-32.0-3.59","","","img_on","","","","","",""
"null","<div style=""font-size:60px;""> </div>","null","html-keyboard-response","567","706646","0.0-32.0-4.59","","","fixation_3","","","","","",""
"null","","null","html-keyboard-response","568","706651","0.0-32.0-5.59","","","test","uparrow","1","2","FALSE","FALSE",""
"null","<div style=""font-size:60px;""> </div>","null","html-keyboard-response","569","706956","0.0-32.0-6.59","","","fixation_4","","","","","",""
"411","arrows.png","38","image-keyboard-response","570","707367","0.0-32.0-7.59","","","test","uparrow","1","2","FALSE","FALSE","true"
"null","<p style=""color: green; font-size:300%;"">correct: $7.50</p>","null","html-keyboard-response","571","708620","0.0-32.0-8.59","","","","","","","","",""
"null","<div style=""font-size:60px;""> </div>","null","html-keyboard-response","572","709928","0.0-32.0-0.60","","","fixation_1","","","","","",""
"null","","null","image-keyboard-response","573","709932","0.0-32.0-1.60","","","test","leftarrow","0","2","FALSE","FALSE",""
"null","<div style=""font-size:60px;""> </div>","null","html-keyboard-response","574","710237","0.0-32.0-2.60","","","fixation_2","","","","","",""
"null","img_4.bmp","null","image-keyboard-response","575","711242","0.0-32.0-3.60","","","img_on","","","","","",""
"null","<div style=""font-size:60px;""> </div>","null","html-keyboard-response","576","711547","0.0-32.0-4.60","","","fixation_3","","","","","",""
"null","","null","html-keyboard-response","577","711551","0.0-32.0-5.60","","","test","leftarrow","0","2","FALSE","FALSE",""
"null","<div style=""font-size:60px;""> </div>","null","html-keyboard-response","578","711856","0.0-32.0-6.60","","","fixation_4","","","","","",""
"339","arrows.png","37","image-keyboard-response","579","712197","0.0-32.0-7.60","","","test","leftarrow","0","2","FALSE","FALSE","true"
"null","<p style=""color: green; font-size:300%;"">correct: $2.50</p>","null","html-keyboard-response","580","713452","0.0-32.0-8.60","","","","","","","","",""
"null","<div style=""font-size:60px;""> </div>","null","html-keyboard-response","581","714007","0.0-32.0-0.61","","","fixation_1","","","","","",""
"null","","null","image-keyboard-response","582","714012","0.0-32.0-1.61","","","test","downarrow","0","2","FALSE","FALSE",""
"null","<div style=""font-size:60px;""> </div>","null","html-keyboard-response","583","714317","0.0-32.0-2.61","","","fixation_2","","","","","",""
"null","img_3.bmp","null","image-keyboard-response","584","715321","0.0-32.0-3.61","","","img_on","","","","","",""
"null","<div style=""font-size:60px;""> </div>","null","html-keyboard-response","585","715627","0.0-32.0-4.61","","","fixation_3","","","","","",""
"null","","null","html-keyboard-response","586","715631","0.0-32.0-5.61","","","test","downarrow","0","2","FALSE","FALSE",""
"null","<div style=""font-size:60px;""> </div>","null","html-keyboard-response","587","715935","0.0-32.0-6.61","","","fixation_4","","","","","",""
"448","arrows.png","40","image-keyboard-response","588","716383","0.0-32.0-7.61","","","test","downarrow","0","2","FALSE","FALSE","true"
"null","<p style=""color: green; font-size:300%;"">correct: $2.50</p>","null","html-keyboard-response","589","717641","0.0-32.0-8.61","","","","","","","","",""
"null","<div style=""font-size:60px;""> </div>","null","html-keyboard-response","590","718696","0.0-32.0-0.62","","","fixation_1","","","","","",""
"null","","null","image-keyboard-response","591","718702","0.0-32.0-1.62","","","test","rightarrow","1","2","FALSE","FALSE",""
"null","<div style=""font-size:60px;""> </div>","null","html-keyboard-response","592","719007","0.0-32.0-2.62","","","fixation_2","","","","","",""
"null","img_2.bmp","null","image-keyboard-response","593","720012","0.0-32.0-3.62","","","img_on","","","","","",""
"null","<div style=""font-size:60px;""> </div>","null","html-keyboard-response","594","720317","0.0-32.0-4.62","","","fixation_3","","","","","",""
"null","","null","html-keyboard-response","595","720322","0.0-32.0-5.62","","","test","rightarrow","1","2","FALSE","FALSE",""
"null","<div style=""font-size:60px;""> </div>","null","html-keyboard-response","596","720627","0.0-32.0-6.62","","","fixation_4","","","","","",""
"330","arrows.png","39","image-keyboard-response","597","720957","0.0-32.0-7.62","","","test","rightarrow","1","2","FALSE","FALSE","true"
"null","<p style=""color: green; font-size:300%;"">correct: $7.50</p>","null","html-keyboard-response","598","722215","0.0-32.0-8.62","","","","","","","","",""
"null","<div style=""font-size:60px;""> </div>","null","html-keyboard-response","599","723271","0.0-32.0-0.63","","","fixation_1","","","","","",""
"null","","null","image-keyboard-response","600","723276","0.0-32.0-1.63","","","test","uparrow","1","2","FALSE","FALSE",""
"null","<div style=""font-size:60px;""> </div>","null","html-keyboard-response","601","723581","0.0-32.0-2.63","","","fixation_2","","","","","",""
"null","img_1.bmp","null","image-keyboard-response","602","724586","0.0-32.0-3.63","","","img_on","","","","","",""
"null","<div style=""font-size:60px;""> </div>","null","html-keyboard-response","603","724891","0.0-32.0-4.63","","","fixation_3","","","","","",""
"null","","null","html-keyboard-response","604","724896","0.0-32.0-5.63","","","test","uparrow","1","2","FALSE","FALSE",""
"null","<div style=""font-size:60px;""> </div>","null","html-keyboard-response","605","725198","0.0-32.0-6.63","","","fixation_4","","","","","",""
"303","arrows.png","38","image-keyboard-response","606","725502","0.0-32.0-7.63","","","test","uparrow","1","2","FALSE","FALSE","true"
"null","<p style=""color: green; font-size:300%;"">correct: $7.50</p>","null","html-keyboard-response","607","726758","0.0-32.0-8.63","","","","","","","","",""
"null","<div style=""font-size:60px;""> </div>","null","html-keyboard-response","608","727313","0.0-32.0-0.64","","","fixation_1","","","","","",""
"null","switch_cue.png","null","image-keyboard-response","609","728316","0.0-32.0-1.64","","","test","downarrow","1","3","TRUE","TRUE",""
"null","<div style=""font-size:60px;""> </div>","null","html-keyboard-response","610","728620","0.0-32.0-2.64","","","fixation_2","","","","","",""
"null","img_2.bmp","null","image-keyboard-response","611","729621","0.0-32.0-3.64","","","img_on","","","","","",""
"null","<div style=""font-size:60px;""> </div>","null","html-keyboard-response","612","729926","0.0-32.0-4.64","","","fixation_3","","","","","",""
"null","<img src=""CC3.png"" width=200 height=200/>","null","html-keyboard-response","613","730930","0.0-32.0-5.64","","","test","downarrow","1","3","TRUE","TRUE",""
"null","<div style=""font-size:60px;""> </div>","null","html-keyboard-response","614","731236","0.0-32.0-6.64","","","fixation_4","","","","","",""
"416","arrows.png","37","image-keyboard-response","615","731652","0.0-32.0-7.64","","","test","downarrow","1","3","TRUE","TRUE","false"
"null","<p style=""color: red; font-size:300%;"">incorrect: $0</p>","null","html-keyboard-response","616","732911","0.0-32.0-8.64","","","","","","","","",""
"null","<div style=""font-size:60px;""> </div>","null","html-keyboard-response","617","733719","0.0-32.0-0.65","","","fixation_1","","","","","",""
"null","","null","image-keyboard-response","618","733725","0.0-32.0-1.65","","","test","uparrow","0","3","TRUE","FALSE",""
"null","<div style=""font-size:60px;""> </div>","null","html-keyboard-response","619","734031","0.0-32.0-2.65","","","fixation_2","","","","","",""
"null","img_4.bmp","null","image-keyboard-response","620","735032","0.0-32.0-3.65","","","img_on","","","","","",""
"null","<div style=""font-size:60px;""> </div>","null","html-keyboard-response","621","735337","0.0-32.0-4.65","","","fixation_3","","","","","",""
"null","<img src=""CC3.png"" width=200 height=200/>","null","html-keyboard-response","622","736342","0.0-32.0-5.65","","","test","uparrow","0","3","TRUE","FALSE",""
"null","<div style=""font-size:60px;""> </div>","null","html-keyboard-response","623","736646","0.0-32.0-6.65","","","fixation_4","","","","","",""
"405","arrows.png","39","image-keyboard-response","624","737053","0.0-32.0-7.65","","","test","uparrow","0","3","TRUE","FALSE","false"
"null","<p style=""color: red; font-size:300%;"">incorrect: $0</p>","null","html-keyboard-response","625","738309","0.0-32.0-8.65","","","","","","","","",""
"null","<div style=""font-size:60px;""> </div>","null","html-keyboard-response","626","738866","0.0-32.0-0.66","","","fixation_1","","","","","",""
"null","","null","image-keyboard-response","627","738872","0.0-32.0-1.66","","","test","rightarrow","0","3","TRUE","FALSE",""
"null","<div style=""font-size:60px;""> </div>","null","html-keyboard-response","628","739173","0.0-32.0-2.66","","","fixation_2","","","","","",""
"null","img_1.bmp","null","image-keyboard-response","629","740176","0.0-32.0-3.66","","","img_on","","","","","",""
"null","<div style=""font-size:60px;""> </div>","null","html-keyboard-response","630","740479","0.0-32.0-4.66","","","fixation_3","","","","","",""
"null","<img src=""CC3.png"" width=200 height=200/>","null","html-keyboard-response","631","741481","0.0-32.0-5.66","","","test","rightarrow","0","3","TRUE","FALSE",""
"null","<div style=""font-size:60px;""> </div>","null","html-keyboard-response","632","741786","0.0-32.0-6.66","","","fixation_4","","","","","",""
"997","arrows.png","37","image-keyboard-response","633","742783","0.0-32.0-7.66","","","test","rightarrow","0","3","TRUE","FALSE","false"
"null","<p style=""color: red; font-size:300%;"">incorrect: $0</p>","null","html-keyboard-response","634","744037","0.0-32.0-8.66","","","","","","","","",""
"null","<div style=""font-size:60px;""> </div>","null","html-keyboard-response","635","744595","0.0-32.0-0.67","","","fixation_1","","","","","",""
"null","","null","image-keyboard-response","636","744601","0.0-32.0-1.67","","","test","rightarrow","0","3","TRUE","FALSE",""
"null","<div style=""font-size:60px;""> </div>","null","html-keyboard-response","637","744906","0.0-32.0-2.67","","","fixation_2","","","","","",""
"null","img_1.bmp","null","image-keyboard-response","638","745907","0.0-32.0-3.67","","","img_on","","","","","",""
"null","<div style=""font-size:60px;""> </div>","null","html-keyboard-response","639","746211","0.0-32.0-4.67","","","fixation_3","","","","","",""
"null","<img src=""CC3.png"" width=200 height=200/>","null","html-keyboard-response","640","747216","0.0-32.0-5.67","","","test","rightarrow","0","3","TRUE","FALSE",""
"null","<div style=""font-size:60px;""> </div>","null","html-keyboard-response","641","747519","0.0-32.0-6.67","","","fixation_4","","","","","",""
"287","arrows.png","40","image-keyboard-response","642","747807","0.0-32.0-7.67","","","test","rightarrow","0","3","TRUE","FALSE","false"
"null","<p style=""color: red; font-size:300%;"">incorrect: $0</p>","null","html-keyboard-response","643","749066","0.0-32.0-8.67","","","","","","","","",""
"null","<div style=""font-size:60px;""> </div>","null","html-keyboard-response","644","750626","0.0-32.0-0.68","","","fixation_1","","","","","",""
"null","","null","image-keyboard-response","645","750631","0.0-32.0-1.68","","","test","downarrow","1","3","FALSE","FALSE",""
"null","<div style=""font-size:60px;""> </div>","null","html-keyboard-response","646","750936","0.0-32.0-2.68","","","fixation_2","","","","","",""
"null","img_2.bmp","null","image-keyboard-response","647","751941","0.0-32.0-3.68","","","img_on","","","","","",""
"null","<div style=""font-size:60px;""> </div>","null","html-keyboard-response","648","752246","0.0-32.0-4.68","","","fixation_3","","","","","",""
"null","","null","html-keyboard-response","649","752252","0.0-32.0-5.68","","","test","downarrow","1","3","FALSE","FALSE",""
"null","<div style=""font-size:60px;""> </div>","null","html-keyboard-response","650","752557","0.0-32.0-6.68","","","fixation_4","","","","","",""
"860","arrows.png","38","image-keyboard-response","651","753418","0.0-32.0-7.68","","","test","downarrow","1","3","FALSE","FALSE","false"
"null","<p style=""color: red; font-size:300%;"">incorrect: $0</p>","null","html-keyboard-response","652","754673","0.0-32.0-8.68","","","","","","","","",""
"null","<div style=""font-size:60px;""> </div>","null","html-keyboard-response","653","755233","0.0-32.0-0.69","","","fixation_1","","","","","",""
"null","","null","image-keyboard-response","654","755237","0.0-32.0-1.69","","","test","uparrow","0","3","FALSE","FALSE",""
"null","<div style=""font-size:60px;""> </div>","null","html-keyboard-response","655","755543","0.0-32.0-2.69","","","fixation_2","","","","","",""
"null","img_4.bmp","null","image-keyboard-response","656","756548","0.0-32.0-3.69","","","img_on","","","","","",""
"null","<div style=""font-size:60px;""> </div>","null","html-keyboard-response","657","756853","0.0-32.0-4.69","","","fixation_3","","","","","",""
"null","","null","html-keyboard-response","658","756858","0.0-32.0-5.69","","","test","uparrow","0","3","FALSE","FALSE",""
"null","<div style=""font-size:60px;""> </div>","null","html-keyboard-response","659","757163","0.0-32.0-6.69","","","fixation_4","","","","","",""
"874","arrows.png","40","image-keyboard-response","660","758038","0.0-32.0-7.69","","","test","uparrow","0","3","FALSE","FALSE","false"
"null","<p style=""color: red; font-size:300%;"">incorrect: $0</p>","null","html-keyboard-response","661","759294","0.0-32.0-8.69","","","","","","","","",""
"null","<div style=""font-size:60px;""> </div>","null","html-keyboard-response","662","760352","0.0-32.0-0.70","","","fixation_1","","","","","",""
"null","","null","image-keyboard-response","663","760358","0.0-32.0-1.70","","","test","downarrow","1","3","FALSE","FALSE",""
"null","<div style=""font-size:60px;""> </div>","null","html-keyboard-response","664","760663","0.0-32.0-2.70","","","fixation_2","","","","","",""
"null","img_2.bmp","null","image-keyboard-response","665","761667","0.0-32.0-3.70","","","img_on","","","","","",""
"null","<div style=""font-size:60px;""> </div>","null","html-keyboard-response","666","761971","0.0-32.0-4.70","","","fixation_3","","","","","",""
"null","","null","html-keyboard-response","667","761976","0.0-32.0-5.70","","","test","downarrow","1","3","FALSE","FALSE",""
"null","<div style=""font-size:60px;""> </div>","null","html-keyboard-response","668","762281","0.0-32.0-6.70","","","fixation_4","","","","","",""
"917","arrows.png","39","image-keyboard-response","669","763199","0.0-32.0-7.70","","","test","downarrow","1","3","FALSE","FALSE","false"
"null","<p style=""color: red; font-size:300%;"">incorrect: $0</p>","null","html-keyboard-response","670","764449","0.0-32.0-8.70","","","","","","","","",""
"null","<div style=""font-size:60px;""> </div>","null","html-keyboard-response","671","765008","0.0-32.0-0.71","","","fixation_1","","","","","",""
"null","","null","image-keyboard-response","672","765014","0.0-32.0-1.71","","","test","uparrow","0","3","FALSE","FALSE",""
"null","<div style=""font-size:60px;""> </div>","null","html-keyboard-response","673","765318","0.0-32.0-2.71","","","fixation_2","","","","","",""
"null","img_4.bmp","null","image-keyboard-response","674","766323","0.0-32.0-3.71","","","img_on","","","","","",""
"null","<div style=""font-size:60px;""> </div>","null","html-keyboard-response","675","766627","0.0-32.0-4.71","","","fixation_3","","","","","",""
"null","","null","html-keyboard-response","676","766633","0.0-32.0-5.71","","","test","uparrow","0","3","FALSE","FALSE",""
"null","<div style=""font-size:60px;""> </div>","null","html-keyboard-response","677","766938","0.0-32.0-6.71","","","fixation_4","","","","","",""
"444","arrows.png","38","image-keyboard-response","678","767384","0.0-32.0-7.71","","","test","uparrow","0","3","FALSE","FALSE","true"
"null","<p style=""color: green; font-size:300%;"">correct: $2.50</p>","null","html-keyboard-response","679","768642","0.0-32.0-8.71","","","","","","","","",""
"null","<div style=""font-size:60px;""> </div>","null","html-keyboard-response","680","769202","0.0-32.0-0.72","","","fixation_1","","","","","",""
"null","switch_cue.png","null","image-keyboard-response","681","770206","0.0-32.0-1.72","","","test","rightarrow","0","3","TRUE","TRUE",""
"null","<div style=""font-size:60px;""> </div>","null","html-keyboard-response","682","770511","0.0-32.0-2.72","","","fixation_2","","","","","",""
"null","img_1.bmp","null","image-keyboard-response","683","771515","0.0-32.0-3.72","","","img_on","","","","","",""
"null","<div style=""font-size:60px;""> </div>","null","html-keyboard-response","684","771820","0.0-32.0-4.72","","","fixation_3","","","","","",""
"null","<img src=""CC3.png"" width=200 height=200/>","null","html-keyboard-response","685","772821","0.0-32.0-5.72","","","test","rightarrow","0","3","TRUE","TRUE",""
"null","<div style=""font-size:60px;""> </div>","null","html-keyboard-response","686","773126","0.0-32.0-6.72","","","fixation_4","","","","","",""
"302","arrows.png","39","image-keyboard-response","687","773429","0.0-32.0-7.72","","","test","rightarrow","0","3","TRUE","TRUE","true"
"null","<p style=""color: green; font-size:300%;"">correct: $2.50</p>","null","html-keyboard-response","688","774688","0.0-32.0-8.72","","","","","","","","",""
"null","<div style=""font-size:60px;""> </div>","null","html-keyboard-response","689","775996","0.0-32.0-0.73","","","fixation_1","","","","","",""
"null","switch_cue.png","null","image-keyboard-response","690","777000","0.0-32.0-1.73","","","test","rightarrow","1","4","TRUE","TRUE",""
"null","<div style=""font-size:60px;""> </div>","null","html-keyboard-response","691","777305","0.0-32.0-2.73","","","fixation_2","","","","","",""
"null","img_2.bmp","null","image-keyboard-response","692","778310","0.0-32.0-3.73","","","img_on","","","","","",""
"null","<div style=""font-size:60px;""> </div>","null","html-keyboard-response","693","778615","0.0-32.0-4.73","","","fixation_3","","","","","",""
"null","<img src=""CC4.png"" width=200 height=200/>","null","html-keyboard-response","694","779618","0.0-32.0-5.73","","","test","rightarrow","1","4","TRUE","TRUE",""
"null","<div style=""font-size:60px;""> </div>","null","html-keyboard-response","695","779922","0.0-32.0-6.73","","","fixation_4","","","","","",""
"1441","arrows.png","37","image-keyboard-response","696","781363","0.0-32.0-7.73","","","test","rightarrow","1","4","TRUE","TRUE","false"
"null","<p style=""color: red; font-size:300%;"">incorrect: $0</p>","null","html-keyboard-response","697","782621","0.0-32.0-8.73","","","","","","","","",""
"null","<div style=""font-size:60px;""> </div>","null","html-keyboard-response","698","783677","0.0-32.0-0.74","","","fixation_1","","","","","",""
"null","","null","image-keyboard-response","699","783681","0.0-32.0-1.74","","","test","uparrow","1","4","TRUE","FALSE",""
"null","<div style=""font-size:60px;""> </div>","null","html-keyboard-response","700","783986","0.0-32.0-2.74","","","fixation_2","","","","","",""
"null","img_1.bmp","null","image-keyboard-response","701","784991","0.0-32.0-3.74","","","img_on","","","","","",""
"null","<div style=""font-size:60px;""> </div>","null","html-keyboard-response","702","785296","0.0-32.0-4.74","","","fixation_3","","","","","",""
"null","<img src=""CC4.png"" width=200 height=200/>","null","html-keyboard-response","703","786301","0.0-32.0-5.74","","","test","uparrow","1","4","TRUE","FALSE",""
"null","<div style=""font-size:60px;""> </div>","null","html-keyboard-response","704","786605","0.0-32.0-6.74","","","fixation_4","","","","","",""
"309","arrows.png","40","image-keyboard-response","705","786914","0.0-32.0-7.74","","","test","uparrow","1","4","TRUE","FALSE","false"
