"rt","stimulus","key_press","trial_type","trial_index","time_elapsed","internal_node_id","responses","view_history","test_part","correct_response","outcome","context","cc","sc","correct"
"1270","<p><b>Welcome to the Picture Learning Game!</b></p>
      <p>The game will take ~35 minutes to complete, and you can make up to $17.50.</p>
      <p>You must use a desktop or laptop computer computer (no mobile devices).</p>
      <p><em>Press any key to continue.</em></p>","16","html-keyboard-response","0","1282","0.0-0.0","","","","","","","","",""
"9617.699999999255","","","survey-text","1","10904","0.0-1.0","{""aws"":""A1XUZFDVKP95VC""}","","","","","","","",""
"7294.5","","","survey-text","2","18205","0.0-2.0","{""age"":""42"",""english"":""y"",""handedness"":""r"",""desktop"":""y""}","","","","","","","",""
"83384.59999999963","","","instructions","3","101589","0.0-3.0","","[{""page_index"":0,""viewing_time"":52902.09999999963},{""page_index"":1,""viewing_time"":7040.5999999996275},{""page_index"":2,""viewing_time"":3286.5999999996275},{""page_index"":3,""viewing_time"":17198.400000000373},{""page_index"":4,""viewing_time"":2956.5}]","","","","","","",""
"null","sample1.bmp","null","image-keyboard-response","4","102590","0.0-4.0","","","","","","","","",""
"693.0999999996275","arrows.png","38","image-keyboard-response","5","103585","0.0-5.0","","","","","","","","",""
"12199.599999999627","","","instructions","6","115785","0.0-6.0","","[{""page_index"":0,""viewing_time"":2139.9000000003725},{""page_index"":1,""viewing_time"":8193},{""page_index"":2,""viewing_time"":1866.300000000745}]","","","","","","",""
"null","sample1.bmp","null","image-keyboard-response","7","116786","0.0-7.0","","","","","","","","",""
"null","<img src=""CC1.png"" width=200 height=200/>","null","html-keyboard-response","8","118088","0.0-8.0","","","","","","","","",""
"342.2999999988824","arrows.png","38","image-keyboard-response","9","118732","0.0-9.0","","","","","","","","",""
"7830.0999999996275","","","instructions","10","126562","0.0-10.0","","[{""page_index"":0,""viewing_time"":2467.0999999996275},{""page_index"":1,""viewing_time"":5362.800000000745}]","","","","","","",""
"null","sample1.bmp","null","image-keyboard-response","11","127563","0.0-11.0","","","","","","","","",""
"null","<img src=""CC2.png"" width=200 height=200/>","null","html-keyboard-response","12","128867","0.0-12.0","","","","","","","","",""
"364.09999999962747","arrows.png","39","image-keyboard-response","13","129532","0.0-13.0","","","","","","","","",""
"24440.300000000745","","","instructions","14","153972","0.0-14.0","","[{""page_index"":0,""viewing_time"":1603},{""page_index"":1,""viewing_time"":5160.5},{""page_index"":2,""viewing_time"":9565.400000000373},{""page_index"":3,""viewing_time"":2614.2999999988824},{""page_index"":4,""viewing_time"":5496.800000000745}]","","","","","","",""
"null","sample1.bmp","null","image-keyboard-response","15","154974","0.0-15.0","","","","","","","","",""
"7042.700000001118","arrows.png","39","image-keyboard-response","16","162317","0.0-16.0","","","","","","","","",""
"9299.5","","","instructions","17","171617","0.0-17.0","","[{""page_index"":0,""viewing_time"":229.30000000074506},{""page_index"":1,""viewing_time"":6261.699999999255},{""page_index"":2,""viewing_time"":2808.300000000745}]","","","","","","",""
"null","sample1.bmp","null","image-keyboard-response","18","172618","0.0-18.0","","","","","","","","",""
"2094.0999999996275","arrows.png","39","image-keyboard-response","19","175013","0.0-19.0","","","","","","","","",""
"null","<p style=""color: green; font-size:300%;"">correct</p>","null","html-keyboard-response","20","176014","0.0-20.0","","","","","","","","",""
"null","switch_cue.png","null","image-keyboard-response","21","177316","0.0-21.0","","","","","","","","",""
"null","sample1.bmp","null","image-keyboard-response","22","178619","0.0-22.0","","","","","","","","",""
"null","<img src=""CC2.png"" width=200 height=200/>","null","html-keyboard-response","23","179922","0.0-23.0","","","","","","","","",""
"1043.9000000003725","arrows.png","39","image-keyboard-response","24","181267","0.0-24.0","","","","","","","","",""
"null","<p style=""color: green; font-size:300%;"">correct</p>","null","html-keyboard-response","25","182275","0.0-25.0","","","","","","","","",""
"null","switch_cue.png","null","image-keyboard-response","26","183577","0.0-26.0","","","","","","","","",""
"null","sample1.bmp","null","image-keyboard-response","27","184878","0.0-27.0","","","","","","","","",""
"null","<img src=""CC1.png"" width=200 height=200/>","null","html-keyboard-response","28","186185","0.0-28.0","","","","","","","","",""
"362.1000000014901","arrows.png","38","image-keyboard-response","29","186849","0.0-29.0","","","","","","","","",""
"null","<p style=""color: green; font-size:300%;"">correct</p>","null","html-keyboard-response","30","187850","0.0-30.0","","","","","","","","",""
"39633.39999999851","","","instructions","31","227784","0.0-31.0","","[{""page_index"":0,""viewing_time"":7606.60000000149},{""page_index"":1,""viewing_time"":1930.3999999985099},{""page_index"":2,""viewing_time"":6718.800000000745},{""page_index"":3,""viewing_time"":9229.39999999851},{""page_index"":4,""viewing_time"":3494.400000002235},{""page_index"":5,""viewing_time"":5102.699999999255},{""page_index"":6,""viewing_time"":4348.599999997765},{""page_index"":7,""viewing_time"":1202.2000000029802}]","","","","","","",""
"null","<div style=""font-size:60px;""> </div>","null","html-keyboard-response","32","228086","0.0-32.0-0.0","","","fixation_1","","","","","",""
"null","","null","image-keyboard-response","33","228089","0.0-32.0-1.0","","","test","rightarrow","0","1","TRUE","FALSE",""
"null","<div style=""font-size:60px;""> </div>","null","html-keyboard-response","34","228390","0.0-32.0-2.0","","","fixation_2","","","","","",""
"null","img_1.bmp","null","image-keyboard-response","35","229391","0.0-32.0-3.0","","","img_on","","","","","",""
"null","<div style=""font-size:60px;""> </div>","null","html-keyboard-response","36","229692","0.0-32.0-4.0","","","fixation_3","","","","","",""
"null","<img src=""CC1.png"" width=200 height=200/>","null","html-keyboard-response","37","230694","0.0-32.0-5.0","","","test","rightarrow","0","1","TRUE","FALSE",""
"null","<div style=""font-size:60px;""> </div>","null","html-keyboard-response","38","230995","0.0-32.0-6.0","","","fixation_4","","","","","",""
"460.70000000298023","arrows.png","37","image-keyboard-response","39","231457","0.0-32.0-7.0","","","test","rightarrow","0","1","TRUE","FALSE","false"
"null","<p style=""color: red; font-size:300%;"">incorrect: $0</p>","null","html-keyboard-response","40","232709","0.0-32.0-8.0","","","","","","","","",""
"null","<div style=""font-size:60px;""> </div>","null","html-keyboard-response","41","234011","0.0-32.0-0.1","","","fixation_1","","","","","",""
"null","","null","image-keyboard-response","42","234017","0.0-32.0-1.1","","","test","uparrow","0","1","TRUE","FALSE",""
"null","<div style=""font-size:60px;""> </div>","null","html-keyboard-response","43","234318","0.0-32.0-2.1","","","fixation_2","","","","","",""
"null","img_4.bmp","null","image-keyboard-response","44","235318","0.0-32.0-3.1","","","img_on","","","","","",""
"null","<div style=""font-size:60px;""> </div>","null","html-keyboard-response","45","235619","0.0-32.0-4.1","","","fixation_3","","","","","",""
"null","<img src=""CC1.png"" width=200 height=200/>","null","html-keyboard-response","46","236621","0.0-32.0-5.1","","","test","uparrow","0","1","TRUE","FALSE",""
"null","<div style=""font-size:60px;""> </div>","null","html-keyboard-response","47","236922","0.0-32.0-6.1","","","fixation_4","","","","","",""
"471","arrows.png","40","image-keyboard-response","48","237394","0.0-32.0-7.1","","","test","uparrow","0","1","TRUE","FALSE","false"
"null","<p style=""color: red; font-size:300%;"">incorrect: $0</p>","null","html-keyboard-response","49","238646","0.0-32.0-8.1","","","","","","","","",""
"null","<div style=""font-size:60px;""> </div>","null","html-keyboard-response","50","239948","0.0-32.0-0.2","","","fixation_1","","","","","",""
"null","","null","image-keyboard-response","51","239953","0.0-32.0-1.2","","","test","downarrow","1","1","TRUE","FALSE",""
"null","<div style=""font-size:60px;""> </div>","null","html-keyboard-response","52","240254","0.0-32.0-2.2","","","fixation_2","","","","","",""
"null","img_2.bmp","null","image-keyboard-response","53","241255","0.0-32.0-3.2","","","img_on","","","","","",""
"null","<div style=""font-size:60px;""> </div>","null","html-keyboard-response","54","241556","0.0-32.0-4.2","","","fixation_3","","","","","",""
"null","<img src=""CC1.png"" width=200 height=200/>","null","html-keyboard-response","55","242558","0.0-32.0-5.2","","","test","downarrow","1","1","TRUE","FALSE",""
"null","<div style=""font-size:60px;""> </div>","null","html-keyboard-response","56","242860","0.0-32.0-6.2","","","fixation_4","","","","","",""
"412.69999999925494","arrows.png","37","image-keyboard-response","57","243273","0.0-32.0-7.2","","","test","downarrow","1","1","TRUE","FALSE","false"
"null","<p style=""color: red; font-size:300%;"">incorrect: $0</p>","null","html-keyboard-response","58","244525","0.0-32.0-8.2","","","","","","","","",""
"null","<div style=""font-size:60px;""> </div>","null","html-keyboard-response","59","245578","0.0-32.0-0.3","","","fixation_1","","","","","",""
"null","","null","image-keyboard-response","60","245583","0.0-32.0-1.3","","","test","leftarrow","1","1","TRUE","FALSE",""
"null","<div style=""font-size:60px;""> </div>","null","html-keyboard-response","61","245883","0.0-32.0-2.3","","","fixation_2","","","","","",""
"null","img_3.bmp","null","image-keyboard-response","62","246885","0.0-32.0-3.3","","","img_on","","","","","",""
"null","<div style=""font-size:60px;""> </div>","null","html-keyboard-response","63","247188","0.0-32.0-4.3","","","fixation_3","","","","","",""
"null","<img src=""CC1.png"" width=200 height=200/>","null","html-keyboard-response","64","248190","0.0-32.0-5.3","","","test","leftarrow","1","1","TRUE","FALSE",""
"null","<div style=""font-size:60px;""> </div>","null","html-keyboard-response","65","248491","0.0-32.0-6.3","","","fixation_4","","","","","",""
"423","arrows.png","40","image-keyboard-response","66","248914","0.0-32.0-7.3","","","test","leftarrow","1","1","TRUE","FALSE","false"
"null","<p style=""color: red; font-size:300%;"">incorrect: $0</p>","null","html-keyboard-response","67","250168","0.0-32.0-8.3","","","","","","","","",""
"null","<div style=""font-size:60px;""> </div>","null","html-keyboard-response","68","250720","0.0-32.0-0.4","","","fixation_1","","","","","",""
"null","","null","image-keyboard-response","69","250726","0.0-32.0-1.4","","","test","rightarrow","0","1","FALSE","FALSE",""
"null","<div style=""font-size:60px;""> </div>","null","html-keyboard-response","70","251028","0.0-32.0-2.4","","","fixation_2","","","","","",""
"null","img_1.bmp","null","image-keyboard-response","71","252029","0.0-32.0-3.4","","","img_on","","","","","",""
"null","<div style=""font-size:60px;""> </div>","null","html-keyboard-response","72","252330","0.0-32.0-4.4","","","fixation_3","","","","","",""
"null","","null","html-keyboard-response","73","252335","0.0-32.0-5.4","","","test","rightarrow","0","1","FALSE","FALSE",""
"null","<div style=""font-size:60px;""> </div>","null","html-keyboard-response","74","252636","0.0-32.0-6.4","","","fixation_4","","","","","",""
"723.9000000022352","arrows.png","40","image-keyboard-response","75","253361","0.0-32.0-7.4","","","test","rightarrow","0","1","FALSE","FALSE","false"
"null","<p style=""color: red; font-size:300%;"">incorrect: $0</p>","null","html-keyboard-response","76","254613","0.0-32.0-8.4","","","","","","","","",""
"null","<div style=""font-size:60px;""> </div>","null","html-keyboard-response","77","255415","0.0-32.0-0.5","","","fixation_1","","","","","",""
"null","","null","image-keyboard-response","78","255420","0.0-32.0-1.5","","","test","uparrow","0","1","FALSE","FALSE",""
"null","<div style=""font-size:60px;""> </div>","null","html-keyboard-response","79","255721","0.0-32.0-2.5","","","fixation_2","","","","","",""
"null","img_4.bmp","null","image-keyboard-response","80","256722","0.0-32.0-3.5","","","img_on","","","","","",""
"null","<div style=""font-size:60px;""> </div>","null","html-keyboard-response","81","257023","0.0-32.0-4.5","","","fixation_3","","","","","",""
"null","","null","html-keyboard-response","82","257028","0.0-32.0-5.5","","","test","uparrow","0","1","FALSE","FALSE",""
"null","<div style=""font-size:60px;""> </div>","null","html-keyboard-response","83","257329","0.0-32.0-6.5","","","fixation_4","","","","","",""
"1504.699999999255","arrows.png","38","image-keyboard-response","84","258835","0.0-32.0-7.5","","","test","uparrow","0","1","FALSE","FALSE","true"
"null","<p style=""color: green; font-size:300%;"">correct: $2.50</p>","null","html-keyboard-response","85","260086","0.0-32.0-8.5","","","","","","","","",""
"null","<div style=""font-size:60px;""> </div>","null","html-keyboard-response","86","260639","0.0-32.0-0.6","","","fixation_1","","","","","",""
"null","","null","image-keyboard-response","87","260644","0.0-32.0-1.6","","","test","leftarrow","1","1","FALSE","FALSE",""
"null","<div style=""font-size:60px;""> </div>","null","html-keyboard-response","88","260944","0.0-32.0-2.6","","","fixation_2","","","","","",""
"null","img_3.bmp","null","image-keyboard-response","89","261946","0.0-32.0-3.6","","","img_on","","","","","",""
"null","<div style=""font-size:60px;""> </div>","null","html-keyboard-response","90","262248","0.0-32.0-4.6","","","fixation_3","","","","","",""
"null","","null","html-keyboard-response","91","262252","0.0-32.0-5.6","","","test","leftarrow","1","1","FALSE","FALSE",""
"null","<div style=""font-size:60px;""> </div>","null","html-keyboard-response","92","262554","0.0-32.0-6.6","","","fixation_4","","","","","",""
"859.6999999992549","arrows.png","39","image-keyboard-response","93","263415","0.0-32.0-7.6","","","test","leftarrow","1","1","FALSE","FALSE","false"
"null","<p style=""color: red; font-size:300%;"">incorrect: $0</p>","null","html-keyboard-response","94","264668","0.0-32.0-8.6","","","","","","","","",""
"null","<div style=""font-size:60px;""> </div>","null","html-keyboard-response","95","265469","0.0-32.0-0.7","","","fixation_1","","","","","",""
"null","","null","image-keyboard-response","96","265475","0.0-32.0-1.7","","","test","downarrow","1","1","FALSE","FALSE",""
"null","<div style=""font-size:60px;""> </div>","null","html-keyboard-response","97","265776","0.0-32.0-2.7","","","fixation_2","","","","","",""
"null","img_2.bmp","null","image-keyboard-response","98","266777","0.0-32.0-3.7","","","img_on","","","","","",""
"null","<div style=""font-size:60px;""> </div>","null","html-keyboard-response","99","267078","0.0-32.0-4.7","","","fixation_3","","","","","",""
"null","","null","html-keyboard-response","100","267083","0.0-32.0-5.7","","","test","downarrow","1","1","FALSE","FALSE",""
"null","<div style=""font-size:60px;""> </div>","null","html-keyboard-response","101","267384","0.0-32.0-6.7","","","fixation_4","","","","","",""
"897.3000000007451","arrows.png","40","image-keyboard-response","102","268282","0.0-32.0-7.7","","","test","downarrow","1","1","FALSE","FALSE","true"
"null","<p style=""color: green; font-size:300%;"">correct: $7.50</p>","null","html-keyboard-response","103","269533","0.0-32.0-8.7","","","","","","","","",""
"null","<div style=""font-size:60px;""> </div>","null","html-keyboard-response","104","271085","0.0-32.0-0.8","","","fixation_1","","","","","",""
"null","","null","image-keyboard-response","105","271090","0.0-32.0-1.8","","","test","downarrow","1","1","FALSE","FALSE",""
"null","<div style=""font-size:60px;""> </div>","null","html-keyboard-response","106","271391","0.0-32.0-2.8","","","fixation_2","","","","","",""
"null","img_2.bmp","null","image-keyboard-response","107","272392","0.0-32.0-3.8","","","img_on","","","","","",""
"null","<div style=""font-size:60px;""> </div>","null","html-keyboard-response","108","272693","0.0-32.0-4.8","","","fixation_3","","","","","",""
"null","","null","html-keyboard-response","109","272698","0.0-32.0-5.8","","","test","downarrow","1","1","FALSE","FALSE",""
"null","<div style=""font-size:60px;""> </div>","null","html-keyboard-response","110","272999","0.0-32.0-6.8","","","fixation_4","","","","","",""
"466.9000000022352","arrows.png","40","image-keyboard-response","111","273467","0.0-32.0-7.8","","","test","downarrow","1","1","FALSE","FALSE","true"
"null","<p style=""color: green; font-size:300%;"">correct: $7.50</p>","null","html-keyboard-response","112","274719","0.0-32.0-8.8","","","","","","","","",""
"null","<div style=""font-size:60px;""> </div>","null","html-keyboard-response","113","276270","0.0-32.0-0.9","","","fixation_1","","","","","",""
"null","","null","image-keyboard-response","114","276275","0.0-32.0-1.9","","","test","rightarrow","0","1","FALSE","FALSE",""
"null","<div style=""font-size:60px;""> </div>","null","html-keyboard-response","115","276577","0.0-32.0-2.9","","","fixation_2","","","","","",""
"null","img_1.bmp","null","image-keyboard-response","116","277578","0.0-32.0-3.9","","","img_on","","","","","",""
"null","<div style=""font-size:60px;""> </div>","null","html-keyboard-response","117","277879","0.0-32.0-4.9","","","fixation_3","","","","","",""
"null","","null","html-keyboard-response","118","277884","0.0-32.0-5.9","","","test","rightarrow","0","1","FALSE","FALSE",""
"null","<div style=""font-size:60px;""> </div>","null","html-keyboard-response","119","278184","0.0-32.0-6.9","","","fixation_4","","","","","",""
"315.1000000014901","arrows.png","39","image-keyboard-response","120","278500","0.0-32.0-7.9","","","test","rightarrow","0","1","FALSE","FALSE","true"
"null","<p style=""color: green; font-size:300%;"">correct: $2.50</p>","null","html-keyboard-response","121","279753","0.0-32.0-8.9","","","","","","","","",""
"null","<div style=""font-size:60px;""> </div>","null","html-keyboard-response","122","280554","0.0-32.0-0.10","","","fixation_1","","","","","",""
"null","","null","image-keyboard-response","123","280560","0.0-32.0-1.10","","","test","uparrow","0","1","FALSE","FALSE",""
"null","<div style=""font-size:60px;""> </div>","null","html-keyboard-response","124","280861","0.0-32.0-2.10","","","fixation_2","","","","","",""
"null","img_4.bmp","null","image-keyboard-response","125","281863","0.0-32.0-3.10","","","img_on","","","","","",""
"null","<div style=""font-size:60px;""> </div>","null","html-keyboard-response","126","282163","0.0-32.0-4.10","","","fixation_3","","","","","",""
"null","","null","html-keyboard-response","127","282169","0.0-32.0-5.10","","","test","uparrow","0","1","FALSE","FALSE",""
"null","<div style=""font-size:60px;""> </div>","null","html-keyboard-response","128","282470","0.0-32.0-6.10","","","fixation_4","","","","","",""
"357.29999999701977","arrows.png","38","image-keyboard-response","129","282828","0.0-32.0-7.10","","","test","uparrow","0","1","FALSE","FALSE","true"
"null","<p style=""color: green; font-size:300%;"">correct: $2.50</p>","null","html-keyboard-response","130","284081","0.0-32.0-8.10","","","","","","","","",""
"null","<div style=""font-size:60px;""> </div>","null","html-keyboard-response","131","285382","0.0-32.0-0.11","","","fixation_1","","","","","",""
"null","","null","image-keyboard-response","132","285387","0.0-32.0-1.11","","","test","leftarrow","1","1","FALSE","FALSE",""
"null","<div style=""font-size:60px;""> </div>","null","html-keyboard-response","133","285688","0.0-32.0-2.11","","","fixation_2","","","","","",""
"null","img_3.bmp","null","image-keyboard-response","134","286689","0.0-32.0-3.11","","","img_on","","","","","",""
"null","<div style=""font-size:60px;""> </div>","null","html-keyboard-response","135","286990","0.0-32.0-4.11","","","fixation_3","","","","","",""
"null","","null","html-keyboard-response","136","286995","0.0-32.0-5.11","","","test","leftarrow","1","1","FALSE","FALSE",""
"null","<div style=""font-size:60px;""> </div>","null","html-keyboard-response","137","287296","0.0-32.0-6.11","","","fixation_4","","","","","",""
"339.30000000074506","arrows.png","37","image-keyboard-response","138","287636","0.0-32.0-7.11","","","test","leftarrow","1","1","FALSE","FALSE","true"
"null","<p style=""color: green; font-size:300%;"">correct: $7.50</p>","null","html-keyboard-response","139","288888","0.0-32.0-8.11","","","","","","","","",""
"null","<div style=""font-size:60px;""> </div>","null","html-keyboard-response","140","290189","0.0-32.0-0.12","","","fixation_1","","","","","",""
"null","","null","image-keyboard-response","141","290195","0.0-32.0-1.12","","","test","uparrow","0","1","FALSE","FALSE",""
"null","<div style=""font-size:60px;""> </div>","null","html-keyboard-response","142","290496","0.0-32.0-2.12","","","fixation_2","","","","","",""
"null","img_4.bmp","null","image-keyboard-response","143","291497","0.0-32.0-3.12","","","img_on","","","","","",""
"null","<div style=""font-size:60px;""> </div>","null","html-keyboard-response","144","291798","0.0-32.0-4.12","","","fixation_3","","","","","",""
"null","","null","html-keyboard-response","145","291803","0.0-32.0-5.12","","","test","uparrow","0","1","FALSE","FALSE",""
"null","<div style=""font-size:60px;""> </div>","null","html-keyboard-response","146","292103","0.0-32.0-6.12","","","fixation_4","","","","","",""
"675.3999999985099","arrows.png","39","image-keyboard-response","147","292779","0.0-32.0-7.12","","","test","uparrow","0","1","FALSE","FALSE","false"
"null","<p style=""color: red; font-size:300%;"">incorrect: $0</p>","null","html-keyboard-response","148","294033","0.0-32.0-8.12","","","","","","","","",""
"null","<div style=""font-size:60px;""> </div>","null","html-keyboard-response","149","295086","0.0-32.0-0.13","","","fixation_1","","","","","",""
"null","","null","image-keyboard-response","150","295091","0.0-32.0-1.13","","","test","leftarrow","1","1","FALSE","FALSE",""
"null","<div style=""font-size:60px;""> </div>","null","html-keyboard-response","151","295393","0.0-32.0-2.13","","","fixation_2","","","","","",""
"null","img_3.bmp","null","image-keyboard-response","152","296394","0.0-32.0-3.13","","","img_on","","","","","",""
"null","<div style=""font-size:60px;""> </div>","null","html-keyboard-response","153","296695","0.0-32.0-4.13","","","fixation_3","","","","","",""
"null","","null","html-keyboard-response","154","296701","0.0-32.0-5.13","","","test","leftarrow","1","1","FALSE","FALSE",""
"null","<div style=""font-size:60px;""> </div>","null","html-keyboard-response","155","297003","0.0-32.0-6.13","","","fixation_4","","","","","",""
"519.5","arrows.png","37","image-keyboard-response","156","297523","0.0-32.0-7.13","","","test","leftarrow","1","1","FALSE","FALSE","true"
"null","<p style=""color: green; font-size:300%;"">correct: $7.50</p>","null","html-keyboard-response","157","298775","0.0-32.0-8.13","","","","","","","","",""
"null","<div style=""font-size:60px;""> </div>","null","html-keyboard-response","158","299578","0.0-32.0-0.14","","","fixation_1","","","","","",""
"null","","null","image-keyboard-response","159","299584","0.0-32.0-1.14","","","test","downarrow","1","1","FALSE","FALSE",""
"null","<div style=""font-size:60px;""> </div>","null","html-keyboard-response","160","299885","0.0-32.0-2.14","","","fixation_2","","","","","",""
"null","img_2.bmp","null","image-keyboard-response","161","300886","0.0-32.0-3.14","","","img_on","","","","","",""
"null","<div style=""font-size:60px;""> </div>","null","html-keyboard-response","162","301187","0.0-32.0-4.14","","","fixation_3","","","","","",""
"null","","null","html-keyboard-response","163","301193","0.0-32.0-5.14","","","test","downarrow","1","1","FALSE","FALSE",""
"null","<div style=""font-size:60px;""> </div>","null","html-keyboard-response","164","301494","0.0-32.0-6.14","","","fixation_4","","","","","",""
"449.6000000014901","arrows.png","40","image-keyboard-response","165","301944","0.0-32.0-7.14","","","test","downarrow","1","1","FALSE","FALSE","true"
"null","<p style=""color: green; font-size:300%;"">correct: $7.50</p>","null","html-keyboard-response","166","303196","0.0-32.0-8.14","","","","","","","","",""
"null","<div style=""font-size:60px;""> </div>","null","html-keyboard-response","167","303998","0.0-32.0-0.15","","","fixation_1","","","","","",""
"null","","null","image-keyboard-response","168","304003","0.0-32.0-1.15","","","test","rightarrow","0","1","FALSE","FALSE",""
"null","<div style=""font-size:60px;""> </div>","null","html-keyboard-response","169","304304","0.0-32.0-2.15","","","fixation_2","","","","","",""
"null","img_1.bmp","null","image-keyboard-response","170","305305","0.0-32.0-3.15","","","img_on","","","","","",""
"null","<div style=""font-size:60px;""> </div>","null","html-keyboard-response","171","305607","0.0-32.0-4.15","","","fixation_3","","","","","",""
"null","","null","html-keyboard-response","172","305612","0.0-32.0-5.15","","","test","rightarrow","0","1","FALSE","FALSE",""
"null","<div style=""font-size:60px;""> </div>","null","html-keyboard-response","173","305914","0.0-32.0-6.15","","","fixation_4","","","","","",""
"358.6000000014901","arrows.png","39","image-keyboard-response","174","306273","0.0-32.0-7.15","","","test","rightarrow","0","1","FALSE","FALSE","true"
"null","<p style=""color: green; font-size:300%;"">correct: $2.50</p>","null","html-keyboard-response","175","307525","0.0-32.0-8.15","","","","","","","","",""
"null","<div style=""font-size:60px;""> </div>","null","html-keyboard-response","176","308076","0.0-32.0-0.16","","","fixation_1","","","","","",""
"null","switch_cue.png","null","image-keyboard-response","177","309078","0.0-32.0-1.16","","","test","rightarrow","0","1","TRUE","TRUE",""
"null","<div style=""font-size:60px;""> </div>","null","html-keyboard-response","178","309379","0.0-32.0-2.16","","","fixation_2","","","","","",""
"null","img_1.bmp","null","image-keyboard-response","179","310380","0.0-32.0-3.16","","","img_on","","","","","",""
"null","<div style=""font-size:60px;""> </div>","null","html-keyboard-response","180","310682","0.0-32.0-4.16","","","fixation_3","","","","","",""
"null","<img src=""CC1.png"" width=200 height=200/>","null","html-keyboard-response","181","311684","0.0-32.0-5.16","","","test","rightarrow","0","1","TRUE","TRUE",""
"null","<div style=""font-size:60px;""> </div>","null","html-keyboard-response","182","311985","0.0-32.0-6.16","","","fixation_4","","","","","",""
"1593.699999999255","arrows.png","37","image-keyboard-response","183","313580","0.0-32.0-7.16","","","test","rightarrow","0","1","TRUE","TRUE","false"
"null","<p style=""color: red; font-size:300%;"">incorrect: $0</p>","null","html-keyboard-response","184","314831","0.0-32.0-8.16","","","","","","","","",""
"null","<div style=""font-size:60px;""> </div>","null","html-keyboard-response","185","316132","0.0-32.0-0.17","","","fixation_1","","","","","",""
"null","switch_cue.png","null","image-keyboard-response","186","317134","0.0-32.0-1.17","","","test","leftarrow","1","1","TRUE","TRUE",""
"null","<div style=""font-size:60px;""> </div>","null","html-keyboard-response","187","317435","0.0-32.0-2.17","","","fixation_2","","","","","",""
"null","img_3.bmp","null","image-keyboard-response","188","318437","0.0-32.0-3.17","","","img_on","","","","","",""
"null","<div style=""font-size:60px;""> </div>","null","html-keyboard-response","189","318738","0.0-32.0-4.17","","","fixation_3","","","","","",""
"null","<img src=""CC1.png"" width=200 height=200/>","null","html-keyboard-response","190","319739","0.0-32.0-5.17","","","test","leftarrow","1","1","TRUE","TRUE",""
"null","<div style=""font-size:60px;""> </div>","null","html-keyboard-response","191","320042","0.0-32.0-6.17","","","fixation_4","","","","","",""
"315.9000000022352","arrows.png","37","image-keyboard-response","192","320358","0.0-32.0-7.17","","","test","leftarrow","1","1","TRUE","TRUE","true"
"null","<p style=""color: green; font-size:300%;"">correct: $7.50</p>","null","html-keyboard-response","193","321610","0.0-32.0-8.17","","","","","","","","",""
"null","<div style=""font-size:60px;""> </div>","null","html-keyboard-response","194","322913","0.0-32.0-0.18","","","fixation_1","","","","","",""
"null","switch_cue.png","null","image-keyboard-response","195","323914","0.0-32.0-1.18","","","test","downarrow","1","1","TRUE","TRUE",""
"null","<div style=""font-size:60px;""> </div>","null","html-keyboard-response","196","324216","0.0-32.0-2.18","","","fixation_2","","","","","",""
"null","img_2.bmp","null","image-keyboard-response","197","325217","0.0-32.0-3.18","","","img_on","","","","","",""
"null","<div style=""font-size:60px;""> </div>","null","html-keyboard-response","198","325518","0.0-32.0-4.18","","","fixation_3","","","","","",""
"null","<img src=""CC1.png"" width=200 height=200/>","null","html-keyboard-response","199","326519","0.0-32.0-5.18","","","test","downarrow","1","1","TRUE","TRUE",""
"null","<div style=""font-size:60px;""> </div>","null","html-keyboard-response","200","326821","0.0-32.0-6.18","","","fixation_4","","","","","",""
"1902.6000000014901","arrows.png","40","image-keyboard-response","201","328724","0.0-32.0-7.18","","","test","downarrow","1","1","TRUE","TRUE","true"
"null","<p style=""color: green; font-size:300%;"">correct: $7.50</p>","null","html-keyboard-response","202","329979","0.0-32.0-8.18","","","","","","","","",""
"null","<div style=""font-size:60px;""> </div>","null","html-keyboard-response","203","331030","0.0-32.0-0.19","","","fixation_1","","","","","",""
"null","switch_cue.png","null","image-keyboard-response","204","332031","0.0-32.0-1.19","","","test","uparrow","0","1","TRUE","TRUE",""
"null","<div style=""font-size:60px;""> </div>","null","html-keyboard-response","205","332332","0.0-32.0-2.19","","","fixation_2","","","","","",""
"null","img_4.bmp","null","image-keyboard-response","206","333334","0.0-32.0-3.19","","","img_on","","","","","",""
"null","<div style=""font-size:60px;""> </div>","null","html-keyboard-response","207","333635","0.0-32.0-4.19","","","fixation_3","","","","","",""
"null","<img src=""CC1.png"" width=200 height=200/>","null","html-keyboard-response","208","334637","0.0-32.0-5.19","","","test","uparrow","0","1","TRUE","TRUE",""
"null","<div style=""font-size:60px;""> </div>","null","html-keyboard-response","209","334939","0.0-32.0-6.19","","","fixation_4","","","","","",""
"273.9000000022352","arrows.png","38","image-keyboard-response","210","335213","0.0-32.0-7.19","","","test","uparrow","0","1","TRUE","TRUE","true"
"null","<p style=""color: green; font-size:300%;"">correct: $2.50</p>","null","html-keyboard-response","211","336465","0.0-32.0-8.19","","","","","","","","",""
"null","<div style=""font-size:60px;""> </div>","null","html-keyboard-response","212","337776","0.0-32.0-0.20","","","fixation_1","","","","","",""
"null","switch_cue.png","null","image-keyboard-response","213","338777","0.0-32.0-1.20","","","test","downarrow","0","2","TRUE","TRUE",""
"null","<div style=""font-size:60px;""> </div>","null","html-keyboard-response","214","339077","0.0-32.0-2.20","","","fixation_2","","","","","",""
"null","img_3.bmp","null","image-keyboard-response","215","340079","0.0-32.0-3.20","","","img_on","","","","","",""
"null","<div style=""font-size:60px;""> </div>","null","html-keyboard-response","216","340379","0.0-32.0-4.20","","","fixation_3","","","","","",""
"null","<img src=""CC2.png"" width=200 height=200/>","null","html-keyboard-response","217","341380","0.0-32.0-5.20","","","test","downarrow","0","2","TRUE","TRUE",""
"null","<div style=""font-size:60px;""> </div>","null","html-keyboard-response","218","341681","0.0-32.0-6.20","","","fixation_4","","","","","",""
"492.4000000022352","arrows.png","38","image-keyboard-response","219","342174","0.0-32.0-7.20","","","test","downarrow","0","2","TRUE","TRUE","false"
"null","<p style=""color: red; font-size:300%;"">incorrect: $0</p>","null","html-keyboard-response","220","343426","0.0-32.0-8.20","","","","","","","","",""
"null","<div style=""font-size:60px;""> </div>","null","html-keyboard-response","221","343979","0.0-32.0-0.21","","","fixation_1","","","","","",""
"null","","null","image-keyboard-response","222","343984","0.0-32.0-1.21","","","test","uparrow","1","2","TRUE","FALSE",""
"null","<div style=""font-size:60px;""> </div>","null","html-keyboard-response","223","344285","0.0-32.0-2.21","","","fixation_2","","","","","",""
"null","img_1.bmp","null","image-keyboard-response","224","345286","0.0-32.0-3.21","","","img_on","","","","","",""
"null","<div style=""font-size:60px;""> </div>","null","html-keyboard-response","225","345587","0.0-32.0-4.21","","","fixation_3","","","","","",""
"null","<img src=""CC2.png"" width=200 height=200/>","null","html-keyboard-response","226","346588","0.0-32.0-5.21","","","test","uparrow","1","2","TRUE","FALSE",""
"null","<div style=""font-size:60px;""> </div>","null","html-keyboard-response","227","346889","0.0-32.0-6.21","","","fixation_4","","","","","",""
"972.3000000007451","arrows.png","40","image-keyboard-response","228","347862","0.0-32.0-7.21","","","test","uparrow","1","2","TRUE","FALSE","false"
"null","<p style=""color: red; font-size:300%;"">incorrect: $0</p>","null","html-keyboard-response","229","349114","0.0-32.0-8.21","","","","","","","","",""
"null","<div style=""font-size:60px;""> </div>","null","html-keyboard-response","230","350167","0.0-32.0-0.22","","","fixation_1","","","","","",""
"null","","null","image-keyboard-response","231","350173","0.0-32.0-1.22","","","test","rightarrow","1","2","TRUE","FALSE",""
"null","<div style=""font-size:60px;""> </div>","null","html-keyboard-response","232","350473","0.0-32.0-2.22","","","fixation_2","","","","","",""
"null","img_2.bmp","null","image-keyboard-response","233","351475","0.0-32.0-3.22","","","img_on","","","","","",""
"null","<div style=""font-size:60px;""> </div>","null","html-keyboard-response","234","351776","0.0-32.0-4.22","","","fixation_3","","","","","",""
"null","<img src=""CC2.png"" width=200 height=200/>","null","html-keyboard-response","235","352776","0.0-32.0-5.22","","","test","rightarrow","1","2","TRUE","FALSE",""
"null","<div style=""font-size:60px;""> </div>","null","html-keyboard-response","236","353078","0.0-32.0-6.22","","","fixation_4","","","","","",""
"943.6000000014901","arrows.png","39","image-keyboard-response","237","354022","0.0-32.0-7.22","","","test","rightarrow","1","2","TRUE","FALSE","true"
"null","<p style=""color: green; font-size:300%;"">correct: $7.50</p>","null","html-keyboard-response","238","355274","0.0-32.0-8.22","","","","","","","","",""
"null","<div style=""font-size:60px;""> </div>","null","html-keyboard-response","239","356826","0.0-32.0-0.23","","","fixation_1","","","","","",""
"null","","null","image-keyboard-response","240","356831","0.0-32.0-1.23","","","test","leftarrow","0","2","TRUE","FALSE",""
"null","<div style=""font-size:60px;""> </div>","null","html-keyboard-response","241","357132","0.0-32.0-2.23","","","fixation_2","","","","","",""
"null","img_4.bmp","null","image-keyboard-response","242","358134","0.0-32.0-3.23","","","img_on","","","","","",""
"null","<div style=""font-size:60px;""> </div>","null","html-keyboard-response","243","358435","0.0-32.0-4.23","","","fixation_3","","","","","",""
"null","<img src=""CC2.png"" width=200 height=200/>","null","html-keyboard-response","244","359437","0.0-32.0-5.23","","","test","leftarrow","0","2","TRUE","FALSE",""
"null","<div style=""font-size:60px;""> </div>","null","html-keyboard-response","245","359738","0.0-32.0-6.23","","","fixation_4","","","","","",""
"391.3999999985099","arrows.png","37","image-keyboard-response","246","360130","0.0-32.0-7.23","","","test","leftarrow","0","2","TRUE","FALSE","true"
"null","<p style=""color: green; font-size:300%;"">correct: $2.50</p>","null","html-keyboard-response","247","361382","0.0-32.0-8.23","","","","","","","","",""
"null","<div style=""font-size:60px;""> </div>","null","html-keyboard-response","248","362934","0.0-32.0-0.24","","","fixation_1","","","","","",""
"null","","null","image-keyboard-response","249","362939","0.0-32.0-1.24","","","test","leftarrow","0","2","FALSE","FALSE",""
"null","<div style=""font-size:60px;""> </div>","null","html-keyboard-response","250","363240","0.0-32.0-2.24","","","fixation_2","","","","","",""
"null","img_4.bmp","null","image-keyboard-response","251","364242","0.0-32.0-3.24","","","img_on","","","","","",""
"null","<div style=""font-size:60px;""> </div>","null","html-keyboard-response","252","364543","0.0-32.0-4.24","","","fixation_3","","","","","",""
"null","","null","html-keyboard-response","253","364549","0.0-32.0-5.24","","","test","leftarrow","0","2","FALSE","FALSE",""
"null","<div style=""font-size:60px;""> </div>","null","html-keyboard-response","254","364850","0.0-32.0-6.24","","","fixation_4","","","","","",""
"1850.800000000745","arrows.png","38","image-keyboard-response","255","366701","0.0-32.0-7.24","","","test","leftarrow","0","2","FALSE","FALSE","false"
"null","<p style=""color: red; font-size:300%;"">incorrect: $0</p>","null","html-keyboard-response","256","367953","0.0-32.0-8.24","","","","","","","","",""
"null","<div style=""font-size:60px;""> </div>","null","html-keyboard-response","257","368755","0.0-32.0-0.25","","","fixation_1","","","","","",""
"null","","null","image-keyboard-response","258","368761","0.0-32.0-1.25","","","test","downarrow","0","2","FALSE","FALSE",""
"null","<div style=""font-size:60px;""> </div>","null","html-keyboard-response","259","369062","0.0-32.0-2.25","","","fixation_2","","","","","",""
"null","img_3.bmp","null","image-keyboard-response","260","370063","0.0-32.0-3.25","","","img_on","","","","","",""
"null","<div style=""font-size:60px;""> </div>","null","html-keyboard-response","261","370364","0.0-32.0-4.25","","","fixation_3","","","","","",""
"null","","null","html-keyboard-response","262","370369","0.0-32.0-5.25","","","test","downarrow","0","2","FALSE","FALSE",""
"null","<div style=""font-size:60px;""> </div>","null","html-keyboard-response","263","370671","0.0-32.0-6.25","","","fixation_4","","","","","",""
"625.8999999985099","arrows.png","40","image-keyboard-response","264","371297","0.0-32.0-7.25","","","test","downarrow","0","2","FALSE","FALSE","true"
"null","<p style=""color: green; font-size:300%;"">correct: $2.50</p>","null","html-keyboard-response","265","372549","0.0-32.0-8.25","","","","","","","","",""
"null","<div style=""font-size:60px;""> </div>","null","html-keyboard-response","266","373105","0.0-32.0-0.26","","","fixation_1","","","","","",""
"null","","null","image-keyboard-response","267","373110","0.0-32.0-1.26","","","test","rightarrow","1","2","FALSE","FALSE",""
"null","<div style=""font-size:60px;""> </div>","null","html-keyboard-response","268","373411","0.0-32.0-2.26","","","fixation_2","","","","","",""
"null","img_2.bmp","null","image-keyboard-response","269","374412","0.0-32.0-3.26","","","img_on","","","","","",""
"null","<div style=""font-size:60px;""> </div>","null","html-keyboard-response","270","374714","0.0-32.0-4.26","","","fixation_3","","","","","",""
"null","","null","html-keyboard-response","271","374718","0.0-32.0-5.26","","","test","rightarrow","1","2","FALSE","FALSE",""
"null","<div style=""font-size:60px;""> </div>","null","html-keyboard-response","272","375019","0.0-32.0-6.26","","","fixation_4","","","","","",""
"974.8000000007451","arrows.png","39","image-keyboard-response","273","375995","0.0-32.0-7.26","","","test","rightarrow","1","2","FALSE","FALSE","true"
"null","<p style=""color: green; font-size:300%;"">correct: $7.50</p>","null","html-keyboard-response","274","377247","0.0-32.0-8.26","","","","","","","","",""
"null","<div style=""font-size:60px;""> </div>","null","html-keyboard-response","275","378300","0.0-32.0-0.27","","","fixation_1","","","","","",""
"null","","null","image-keyboard-response","276","378305","0.0-32.0-1.27","","","test","uparrow","1","2","FALSE","FALSE",""
"null","<div style=""font-size:60px;""> </div>","null","html-keyboard-response","277","378606","0.0-32.0-2.27","","","fixation_2","","","","","",""
"null","img_1.bmp","null","image-keyboard-response","278","379607","0.0-32.0-3.27","","","img_on","","","","","",""
"null","<div style=""font-size:60px;""> </div>","null","html-keyboard-response","279","379909","0.0-32.0-4.27","","","fixation_3","","","","","",""
"null","","null","html-keyboard-response","280","379914","0.0-32.0-5.27","","","test","uparrow","1","2","FALSE","FALSE",""
"null","<div style=""font-size:60px;""> </div>","null","html-keyboard-response","281","380215","0.0-32.0-6.27","","","fixation_4","","","","","",""
"437.19999999925494","arrows.png","38","image-keyboard-response","282","380652","0.0-32.0-7.27","","","test","uparrow","1","2","FALSE","FALSE","true"
"null","<p style=""color: green; font-size:300%;"">correct: $7.50</p>","null","html-keyboard-response","283","381904","0.0-32.0-8.27","","","","","","","","",""
"null","<div style=""font-size:60px;""> </div>","null","html-keyboard-response","284","382706","0.0-32.0-0.28","","","fixation_1","","","","","",""
"null","","null","image-keyboard-response","285","382711","0.0-32.0-1.28","","","test","rightarrow","1","2","FALSE","FALSE",""
"null","<div style=""font-size:60px;""> </div>","null","html-keyboard-response","286","383011","0.0-32.0-2.28","","","fixation_2","","","","","",""
"null","img_2.bmp","null","image-keyboard-response","287","384012","0.0-32.0-3.28","","","img_on","","","","","",""
"null","<div style=""font-size:60px;""> </div>","null","html-keyboard-response","288","384313","0.0-32.0-4.28","","","fixation_3","","","","","",""
"null","","null","html-keyboard-response","289","384318","0.0-32.0-5.28","","","test","rightarrow","1","2","FALSE","FALSE",""
"null","<div style=""font-size:60px;""> </div>","null","html-keyboard-response","290","384619","0.0-32.0-6.28","","","fixation_4","","","","","",""
"477.9000000022352","arrows.png","39","image-keyboard-response","291","385097","0.0-32.0-7.28","","","test","rightarrow","1","2","FALSE","FALSE","true"
"null","<p style=""color: green; font-size:300%;"">correct: $7.50</p>","null","html-keyboard-response","292","386349","0.0-32.0-8.28","","","","","","","","",""
"null","<div style=""font-size:60px;""> </div>","null","html-keyboard-response","293","387651","0.0-32.0-0.29","","","fixation_1","","","","","",""
"null","","null","image-keyboard-response","294","387656","0.0-32.0-1.29","","","test","downarrow","0","2","FALSE","FALSE",""
"null","<div style=""font-size:60px;""> </div>","null","html-keyboard-response","295","387962","0.0-32.0-2.29","","","fixation_2","","","","","",""
"null","img_3.bmp","null","image-keyboard-response","296","388963","0.0-32.0-3.29","","","img_on","","","","","",""
"null","<div style=""font-size:60px;""> </div>","null","html-keyboard-response","297","389264","0.0-32.0-4.29","","","fixation_3","","","","","",""
"null","","null","html-keyboard-response","298","389269","0.0-32.0-5.29","","","test","downarrow","0","2","FALSE","FALSE",""
"null","<div style=""font-size:60px;""> </div>","null","html-keyboard-response","299","389570","0.0-32.0-6.29","","","fixation_4","","","","","",""
"351.69999999925494","arrows.png","40","image-keyboard-response","300","389922","0.0-32.0-7.29","","","test","downarrow","0","2","FALSE","FALSE","true"
"null","<p style=""color: green; font-size:300%;"">correct: $2.50</p>","null","html-keyboard-response","301","391175","0.0-32.0-8.29","","","","","","","","",""
"null","<div style=""font-size:60px;""> </div>","null","html-keyboard-response","302","392726","0.0-32.0-0.30","","","fixation_1","","","","","",""
"null","","null","image-keyboard-response","303","392731","0.0-32.0-1.30","","","test","uparrow","1","2","FALSE","FALSE",""
"null","<div style=""font-size:60px;""> </div>","null","html-keyboard-response","304","393032","0.0-32.0-2.30","","","fixation_2","","","","","",""
"null","img_1.bmp","null","image-keyboard-response","305","394048","0.0-32.0-3.30","","","img_on","","","","","",""
"null","<div style=""font-size:60px;""> </div>","null","html-keyboard-response","306","394350","0.0-32.0-4.30","","","fixation_3","","","","","",""
"null","","null","html-keyboard-response","307","394357","0.0-32.0-5.30","","","test","uparrow","1","2","FALSE","FALSE",""
"null","<div style=""font-size:60px;""> </div>","null","html-keyboard-response","308","394658","0.0-32.0-6.30","","","fixation_4","","","","","",""
"757.5","arrows.png","38","image-keyboard-response","309","395416","0.0-32.0-7.30","","","test","uparrow","1","2","FALSE","FALSE","true"
"null","<p style=""color: green; font-size:300%;"">correct: $7.50</p>","null","html-keyboard-response","310","396667","0.0-32.0-8.30","","","","","","","","",""
"null","<div style=""font-size:60px;""> </div>","null","html-keyboard-response","311","397219","0.0-32.0-0.31","","","fixation_1","","","","","",""
"null","","null","image-keyboard-response","312","397224","0.0-32.0-1.31","","","test","leftarrow","0","2","FALSE","FALSE",""
"null","<div style=""font-size:60px;""> </div>","null","html-keyboard-response","313","397526","0.0-32.0-2.31","","","fixation_2","","","","","",""
"null","img_4.bmp","null","image-keyboard-response","314","398527","0.0-32.0-3.31","","","img_on","","","","","",""
"null","<div style=""font-size:60px;""> </div>","null","html-keyboard-response","315","398828","0.0-32.0-4.31","","","fixation_3","","","","","",""
"null","","null","html-keyboard-response","316","398833","0.0-32.0-5.31","","","test","leftarrow","0","2","FALSE","FALSE",""
"null","<div style=""font-size:60px;""> </div>","null","html-keyboard-response","317","399134","0.0-32.0-6.31","","","fixation_4","","","","","",""
"314.30000000074506","arrows.png","37","image-keyboard-response","318","399449","0.0-32.0-7.31","","","test","leftarrow","0","2","FALSE","FALSE","true"
"null","<p style=""color: green; font-size:300%;"">correct: $2.50</p>","null","html-keyboard-response","319","400701","0.0-32.0-8.31","","","","","","","","",""
"null","<div style=""font-size:60px;""> </div>","null","html-keyboard-response","320","401754","0.0-32.0-0.32","","","fixation_1","","","","","",""
"null","","null","image-keyboard-response","321","401759","0.0-32.0-1.32","","","test","leftarrow","0","2","FALSE","FALSE",""
"null","<div style=""font-size:60px;""> </div>","null","html-keyboard-response","322","402060","0.0-32.0-2.32","","","fixation_2","","","","","",""
"null","img_4.bmp","null","image-keyboard-response","323","403061","0.0-32.0-3.32","","","img_on","","","","","",""
"null","<div style=""font-size:60px;""> </div>","null","html-keyboard-response","324","403363","0.0-32.0-4.32","","","fixation_3","","","","","",""
"null","","null","html-keyboard-response","325","403369","0.0-32.0-5.32","","","test","leftarrow","0","2","FALSE","FALSE",""
"null","<div style=""font-size:60px;""> </div>","null","html-keyboard-response","326","403671","0.0-32.0-6.32","","","fixation_4","","","","","",""
"630.5999999977648","arrows.png","37","image-keyboard-response","327","404302","0.0-32.0-7.32","","","test","leftarrow","0","2","FALSE","FALSE","true"
"null","<p style=""color: green; font-size:300%;"">correct: $2.50</p>","null","html-keyboard-response","328","405553","0.0-32.0-8.32","","","","","","","","",""
"null","<div style=""font-size:60px;""> </div>","null","html-keyboard-response","329","406857","0.0-32.0-0.33","","","fixation_1","","","","","",""
"null","","null","image-keyboard-response","330","406862","0.0-32.0-1.33","","","test","rightarrow","1","2","FALSE","FALSE",""
"null","<div style=""font-size:60px;""> </div>","null","html-keyboard-response","331","407163","0.0-32.0-2.33","","","fixation_2","","","","","",""
"null","img_2.bmp","null","image-keyboard-response","332","408165","0.0-32.0-3.33","","","img_on","","","","","",""
"null","<div style=""font-size:60px;""> </div>","null","html-keyboard-response","333","408467","0.0-32.0-4.33","","","fixation_3","","","","","",""
"null","","null","html-keyboard-response","334","408473","0.0-32.0-5.33","","","test","rightarrow","1","2","FALSE","FALSE",""
"null","<div style=""font-size:60px;""> </div>","null","html-keyboard-response","335","408774","0.0-32.0-6.33","","","fixation_4","","","","","",""
"328.8999999985099","arrows.png","39","image-keyboard-response","336","409103","0.0-32.0-7.33","","","test","rightarrow","1","2","FALSE","FALSE","true"
"null","<p style=""color: green; font-size:300%;"">correct: $7.50</p>","null","html-keyboard-response","337","410355","0.0-32.0-8.33","","","","","","","","",""
"null","<div style=""font-size:60px;""> </div>","null","html-keyboard-response","338","411157","0.0-32.0-0.34","","","fixation_1","","","","","",""
"null","","null","image-keyboard-response","339","411162","0.0-32.0-1.34","","","test","downarrow","0","2","FALSE","FALSE",""
"null","<div style=""font-size:60px;""> </div>","null","html-keyboard-response","340","411463","0.0-32.0-2.34","","","fixation_2","","","","","",""
"null","img_3.bmp","null","image-keyboard-response","341","412465","0.0-32.0-3.34","","","img_on","","","","","",""
"null","<div style=""font-size:60px;""> </div>","null","html-keyboard-response","342","412765","0.0-32.0-4.34","","","fixation_3","","","","","",""
"null","","null","html-keyboard-response","343","412770","0.0-32.0-5.34","","","test","downarrow","0","2","FALSE","FALSE",""
"null","<div style=""font-size:60px;""> </div>","null","html-keyboard-response","344","413072","0.0-32.0-6.34","","","fixation_4","","","","","",""
"302.8999999985099","arrows.png","40","image-keyboard-response","345","413375","0.0-32.0-7.34","","","test","downarrow","0","2","FALSE","FALSE","true"
"null","<p style=""color: green; font-size:300%;"">correct: $2.50</p>","null","html-keyboard-response","346","414635","0.0-32.0-8.34","","","","","","","","",""
"null","<div style=""font-size:60px;""> </div>","null","html-keyboard-response","347","415187","0.0-32.0-0.35","","","fixation_1","","","","","",""
"null","","null","image-keyboard-response","348","415193","0.0-32.0-1.35","","","test","uparrow","1","2","FALSE","FALSE",""
"null","<div style=""font-size:60px;""> </div>","null","html-keyboard-response","349","415494","0.0-32.0-2.35","","","fixation_2","","","","","",""
"null","img_1.bmp","null","image-keyboard-response","350","416495","0.0-32.0-3.35","","","img_on","","","","","",""
"null","<div style=""font-size:60px;""> </div>","null","html-keyboard-response","351","416798","0.0-32.0-4.35","","","fixation_3","","","","","",""
"null","","null","html-keyboard-response","352","416803","0.0-32.0-5.35","","","test","uparrow","1","2","FALSE","FALSE",""
"null","<div style=""font-size:60px;""> </div>","null","html-keyboard-response","353","417103","0.0-32.0-6.35","","","fixation_4","","","","","",""
"290","arrows.png","38","image-keyboard-response","354","417394","0.0-32.0-7.35","","","test","uparrow","1","2","FALSE","FALSE","true"
"null","<p style=""color: green; font-size:300%;"">correct: $7.50</p>","null","html-keyboard-response","355","418646","0.0-32.0-8.35","","","","","","","","",""
"null","<div style=""font-size:60px;""> </div>","null","html-keyboard-response","356","420200","0.0-32.0-0.36","","","fixation_1","","","","","",""
"null","","null","image-keyboard-response","357","420206","0.0-32.0-1.36","","","test","leftarrow","0","2","FALSE","FALSE",""
"null","<div style=""font-size:60px;""> </div>","null","html-keyboard-response","358","420509","0.0-32.0-2.36","","","fixation_2","","","","","",""
"null","img_4.bmp","null","image-keyboard-response","359","421510","0.0-32.0-3.36","","","img_on","","","","","",""
"null","<div style=""font-size:60px;""> </div>","null","html-keyboard-response","360","421811","0.0-32.0-4.36","","","fixation_3","","","","","",""
"null","","null","html-keyboard-response","361","421817","0.0-32.0-5.36","","","test","leftarrow","0","2","FALSE","FALSE",""
"null","<div style=""font-size:60px;""> </div>","null","html-keyboard-response","362","422118","0.0-32.0-6.36","","","fixation_4","","","","","",""
"329.30000000074506","arrows.png","37","image-keyboard-response","363","422448","0.0-32.0-7.36","","","test","leftarrow","0","2","FALSE","FALSE","true"
"null","<p style=""color: green; font-size:300%;"">correct: $2.50</p>","null","html-keyboard-response","364","423700","0.0-32.0-8.36","","","","","","","","",""
"null","<div style=""font-size:60px;""> </div>","null","html-keyboard-response","365","424751","0.0-32.0-0.37","","","fixation_1","","","","","",""
"null","","null","image-keyboard-response","366","424757","0.0-32.0-1.37","","","test","uparrow","1","2","FALSE","FALSE",""
"null","<div style=""font-size:60px;""> </div>","null","html-keyboard-response","367","425058","0.0-32.0-2.37","","","fixation_2","","","","","",""
"null","img_1.bmp","null","image-keyboard-response","368","426060","0.0-32.0-3.37","","","img_on","","","","","",""
"null","<div style=""font-size:60px;""> </div>","null","html-keyboard-response","369","426360","0.0-32.0-4.37","","","fixation_3","","","","","",""
"null","","null","html-keyboard-response","370","426365","0.0-32.0-5.37","","","test","uparrow","1","2","FALSE","FALSE",""
"null","<div style=""font-size:60px;""> </div>","null","html-keyboard-response","371","426667","0.0-32.0-6.37","","","fixation_4","","","","","",""
"452.5","arrows.png","38","image-keyboard-response","372","427120","0.0-32.0-7.37","","","test","uparrow","1","2","FALSE","FALSE","true"
"null","<p style=""color: green; font-size:300%;"">correct: $7.50</p>","null","html-keyboard-response","373","428371","0.0-32.0-8.37","","","","","","","","",""
"null","<div style=""font-size:60px;""> </div>","null","html-keyboard-response","374","429174","0.0-32.0-0.38","","","fixation_1","","","","","",""
"null","","null","image-keyboard-response","375","429179","0.0-32.0-1.38","","","test","rightarrow","1","2","FALSE","FALSE",""
"null","<div style=""font-size:60px;""> </div>","null","html-keyboard-response","376","429480","0.0-32.0-2.38","","","fixation_2","","","","","",""
"null","img_2.bmp","null","image-keyboard-response","377","430481","0.0-32.0-3.38","","","img_on","","","","","",""
"null","<div style=""font-size:60px;""> </div>","null","html-keyboard-response","378","430782","0.0-32.0-4.38","","","fixation_3","","","","","",""
"null","","null","html-keyboard-response","379","430787","0.0-32.0-5.38","","","test","rightarrow","1","2","FALSE","FALSE",""
"null","<div style=""font-size:60px;""> </div>","null","html-keyboard-response","380","431088","0.0-32.0-6.38","","","fixation_4","","","","","",""
"259.19999999925494","arrows.png","39","image-keyboard-response","381","431348","0.0-32.0-7.38","","","test","rightarrow","1","2","FALSE","FALSE","true"
"null","<p style=""color: green; font-size:300%;"">correct: $7.50</p>","null","html-keyboard-response","382","432599","0.0-32.0-8.38","","","","","","","","",""
"null","<div style=""font-size:60px;""> </div>","null","html-keyboard-response","383","434151","0.0-32.0-0.39","","","fixation_1","","","","","",""
"null","switch_cue.png","null","image-keyboard-response","384","435153","0.0-32.0-1.39","","","test","downarrow","0","2","TRUE","TRUE",""
"null","<div style=""font-size:60px;""> </div>","null","html-keyboard-response","385","435454","0.0-32.0-2.39","","","fixation_2","","","","","",""
"null","img_3.bmp","null","image-keyboard-response","386","436455","0.0-32.0-3.39","","","img_on","","","","","",""
"null","<div style=""font-size:60px;""> </div>","null","html-keyboard-response","387","436756","0.0-32.0-4.39","","","fixation_3","","","","","",""
"null","<img src=""CC2.png"" width=200 height=200/>","null","html-keyboard-response","388","437760","0.0-32.0-5.39","","","test","downarrow","0","2","TRUE","TRUE",""
"null","<div style=""font-size:60px;""> </div>","null","html-keyboard-response","389","438062","0.0-32.0-6.39","","","fixation_4","","","","","",""
"1520.6000000014901","arrows.png","40","image-keyboard-response","390","439584","0.0-32.0-7.39","","","test","downarrow","0","2","TRUE","TRUE","true"
"null","<p style=""color: green; font-size:300%;"">correct: $2.50</p>","null","html-keyboard-response","391","440835","0.0-32.0-8.39","","","","","","","","",""
"null","<div style=""font-size:60px;""> </div>","null","html-keyboard-response","392","441387","0.0-32.0-0.40","","","fixation_1","","","","","",""
"null","switch_cue.png","null","image-keyboard-response","393","442388","0.0-32.0-1.40","","","test","uparrow","0","1","TRUE","TRUE",""
"null","<div style=""font-size:60px;""> </div>","null","html-keyboard-response","394","442690","0.0-32.0-2.40","","","fixation_2","","","","","",""
"null","img_4.bmp","null","image-keyboard-response","395","443691","0.0-32.0-3.40","","","img_on","","","","","",""
"null","<div style=""font-size:60px;""> </div>","null","html-keyboard-response","396","443993","0.0-32.0-4.40","","","fixation_3","","","","","",""
"null","<img src=""CC1.png"" width=200 height=200/>","null","html-keyboard-response","397","444995","0.0-32.0-5.40","","","test","uparrow","0","1","TRUE","TRUE",""
"null","<div style=""font-size:60px;""> </div>","null","html-keyboard-response","398","445296","0.0-32.0-6.40","","","fixation_4","","","","","",""
"375.5","arrows.png","38","image-keyboard-response","399","445672","0.0-32.0-7.40","","","test","uparrow","0","1","TRUE","TRUE","true"
"null","<p style=""color: green; font-size:300%;"">correct: $2.50</p>","null","html-keyboard-response","400","446924","0.0-32.0-8.40","","","","","","","","",""
"null","<div style=""font-size:60px;""> </div>","null","html-keyboard-response","401","447725","0.0-32.0-0.41","","","fixation_1","","","","","",""
"null","","null","image-keyboard-response","402","447730","0.0-32.0-1.41","","","test","leftarrow","1","1","TRUE","FALSE",""
"null","<div style=""font-size:60px;""> </div>","null","html-keyboard-response","403","448032","0.0-32.0-2.41","","","fixation_2","","","","","",""
"null","img_3.bmp","null","image-keyboard-response","404","449033","0.0-32.0-3.41","","","img_on","","","","","",""
"null","<div style=""font-size:60px;""> </div>","null","html-keyboard-response","405","449335","0.0-32.0-4.41","","","fixation_3","","","","","",""
"null","<img src=""CC1.png"" width=200 height=200/>","null","html-keyboard-response","406","450336","0.0-32.0-5.41","","","test","leftarrow","1","1","TRUE","FALSE",""
"null","<div style=""font-size:60px;""> </div>","null","html-keyboard-response","407","450638","0.0-32.0-6.41","","","fixation_4","","","","","",""
"298.0999999977648","arrows.png","37","image-keyboard-response","408","450936","0.0-32.0-7.41","","","test","leftarrow","1","1","TRUE","FALSE","true"
"null","<p style=""color: green; font-size:300%;"">correct: $7.50</p>","null","html-keyboard-response","409","452187","0.0-32.0-8.41","","","","","","","","",""
"null","<div style=""font-size:60px;""> </div>","null","html-keyboard-response","410","452990","0.0-32.0-0.42","","","fixation_1","","","","","",""
"null","","null","image-keyboard-response","411","452996","0.0-32.0-1.42","","","test","rightarrow","0","1","TRUE","FALSE",""
"null","<div style=""font-size:60px;""> </div>","null","html-keyboard-response","412","453297","0.0-32.0-2.42","","","fixation_2","","","","","",""
"null","img_1.bmp","null","image-keyboard-response","413","454298","0.0-32.0-3.42","","","img_on","","","","","",""
"null","<div style=""font-size:60px;""> </div>","null","html-keyboard-response","414","454600","0.0-32.0-4.42","","","fixation_3","","","","","",""
"null","<img src=""CC1.png"" width=200 height=200/>","null","html-keyboard-response","415","455601","0.0-32.0-5.42","","","test","rightarrow","0","1","TRUE","FALSE",""
"null","<div style=""font-size:60px;""> </div>","null","html-keyboard-response","416","455902","0.0-32.0-6.42","","","fixation_4","","","","","",""
"381.80000000074506","arrows.png","39","image-keyboard-response","417","456285","0.0-32.0-7.42","","","test","rightarrow","0","1","TRUE","FALSE","true"
"null","<p style=""color: green; font-size:300%;"">correct: $2.50</p>","null","html-keyboard-response","418","457536","0.0-32.0-8.42","","","","","","","","",""
"null","<div style=""font-size:60px;""> </div>","null","html-keyboard-response","419","458838","0.0-32.0-0.43","","","fixation_1","","","","","",""
"null","","null","image-keyboard-response","420","458843","0.0-32.0-1.43","","","test","downarrow","1","1","TRUE","FALSE",""
"null","<div style=""font-size:60px;""> </div>","null","html-keyboard-response","421","459144","0.0-32.0-2.43","","","fixation_2","","","","","",""
"null","img_2.bmp","null","image-keyboard-response","422","460145","0.0-32.0-3.43","","","img_on","","","","","",""
"null","<div style=""font-size:60px;""> </div>","null","html-keyboard-response","423","460447","0.0-32.0-4.43","","","fixation_3","","","","","",""
"null","<img src=""CC1.png"" width=200 height=200/>","null","html-keyboard-response","424","461448","0.0-32.0-5.43","","","test","downarrow","1","1","TRUE","FALSE",""
"null","<div style=""font-size:60px;""> </div>","null","html-keyboard-response","425","461750","0.0-32.0-6.43","","","fixation_4","","","","","",""
"483.3999999985099","arrows.png","40","image-keyboard-response","426","462234","0.0-32.0-7.43","","","test","downarrow","1","1","TRUE","FALSE","true"
"null","<p style=""color: green; font-size:300%;"">correct: $7.50</p>","null","html-keyboard-response","427","463486","0.0-32.0-8.43","","","","","","","","",""
"null","<div style=""font-size:60px;""> </div>","null","html-keyboard-response","428","464288","0.0-32.0-0.44","","","fixation_1","","","","","",""
"null","","null","image-keyboard-response","429","464293","0.0-32.0-1.44","","","test","downarrow","1","1","FALSE","FALSE",""
"null","<div style=""font-size:60px;""> </div>","null","html-keyboard-response","430","464594","0.0-32.0-2.44","","","fixation_2","","","","","",""
"null","img_2.bmp","null","image-keyboard-response","431","465596","0.0-32.0-3.44","","","img_on","","","","","",""
"null","<div style=""font-size:60px;""> </div>","null","html-keyboard-response","432","465897","0.0-32.0-4.44","","","fixation_3","","","","","",""
"null","","null","html-keyboard-response","433","465902","0.0-32.0-5.44","","","test","downarrow","1","1","FALSE","FALSE",""
"null","<div style=""font-size:60px;""> </div>","null","html-keyboard-response","434","466202","0.0-32.0-6.44","","","fixation_4","","","","","",""
"611.7999999970198","arrows.png","40","image-keyboard-response","435","466815","0.0-32.0-7.44","","","test","downarrow","1","1","FALSE","FALSE","true"
"null","<p style=""color: green; font-size:300%;"">correct: $7.50</p>","null","html-keyboard-response","436","468067","0.0-32.0-8.44","","","","","","","","",""
"null","<div style=""font-size:60px;""> </div>","null","html-keyboard-response","437","469119","0.0-32.0-0.45","","","fixation_1","","","","","",""
"null","","null","image-keyboard-response","438","469125","0.0-32.0-1.45","","","test","uparrow","0","1","FALSE","FALSE",""
"null","<div style=""font-size:60px;""> </div>","null","html-keyboard-response","439","469427","0.0-32.0-2.45","","","fixation_2","","","","","",""
"null","img_4.bmp","null","image-keyboard-response","440","470430","0.0-32.0-3.45","","","img_on","","","","","",""
"null","<div style=""font-size:60px;""> </div>","null","html-keyboard-response","441","470731","0.0-32.0-4.45","","","fixation_3","","","","","",""
"null","","null","html-keyboard-response","442","470736","0.0-32.0-5.45","","","test","uparrow","0","1","FALSE","FALSE",""
"null","<div style=""font-size:60px;""> </div>","null","html-keyboard-response","443","471037","0.0-32.0-6.45","","","fixation_4","","","","","",""
"315.8999999985099","arrows.png","38","image-keyboard-response","444","471354","0.0-32.0-7.45","","","test","uparrow","0","1","FALSE","FALSE","true"
"null","<p style=""color: green; font-size:300%;"">correct: $2.50</p>","null","html-keyboard-response","445","472605","0.0-32.0-8.45","","","","","","","","",""
"null","<div style=""font-size:60px;""> </div>","null","html-keyboard-response","446","473659","0.0-32.0-0.46","","","fixation_1","","","","","",""
"null","","null","image-keyboard-response","447","473664","0.0-32.0-1.46","","","test","rightarrow","0","1","FALSE","FALSE",""
"null","<div style=""font-size:60px;""> </div>","null","html-keyboard-response","448","473968","0.0-32.0-2.46","","","fixation_2","","","","","",""
"null","img_1.bmp","null","image-keyboard-response","449","474969","0.0-32.0-3.46","","","img_on","","","","","",""
"null","<div style=""font-size:60px;""> </div>","null","html-keyboard-response","450","475270","0.0-32.0-4.46","","","fixation_3","","","","","",""
"null","","null","html-keyboard-response","451","475275","0.0-32.0-5.46","","","test","rightarrow","0","1","FALSE","FALSE",""
"null","<div style=""font-size:60px;""> </div>","null","html-keyboard-response","452","475576","0.0-32.0-6.46","","","fixation_4","","","","","",""
"318.29999999701977","arrows.png","39","image-keyboard-response","453","475895","0.0-32.0-7.46","","","test","rightarrow","0","1","FALSE","FALSE","true"
"null","<p style=""color: green; font-size:300%;"">correct: $2.50</p>","null","html-keyboard-response","454","477147","0.0-32.0-8.46","","","","","","","","",""
"null","<div style=""font-size:60px;""> </div>","null","html-keyboard-response","455","478700","0.0-32.0-0.47","","","fixation_1","","","","","",""
"null","","null","image-keyboard-response","456","478706","0.0-32.0-1.47","","","test","leftarrow","1","1","FALSE","FALSE",""
"null","<div style=""font-size:60px;""> </div>","null","html-keyboard-response","457","479008","0.0-32.0-2.47","","","fixation_2","","","","","",""
"null","img_3.bmp","null","image-keyboard-response","458","480009","0.0-32.0-3.47","","","img_on","","","","","",""
"null","<div style=""font-size:60px;""> </div>","null","html-keyboard-response","459","480318","0.0-32.0-4.47","","","fixation_3","","","","","",""
"null","","null","html-keyboard-response","460","480323","0.0-32.0-5.47","","","test","leftarrow","1","1","FALSE","FALSE",""
"null","<div style=""font-size:60px;""> </div>","null","html-keyboard-response","461","480624","0.0-32.0-6.47","","","fixation_4","","","","","",""
"403.19999999925494","arrows.png","37","image-keyboard-response","462","481028","0.0-32.0-7.47","","","test","leftarrow","1","1","FALSE","FALSE","true"
"null","<p style=""color: green; font-size:300%;"">correct: $7.50</p>","null","html-keyboard-response","463","482280","0.0-32.0-8.47","","","","","","","","",""
"null","<div style=""font-size:60px;""> </div>","null","html-keyboard-response","464","483082","0.0-32.0-0.48","","","fixation_1","","","","","",""
"null","","null","image-keyboard-response","465","483087","0.0-32.0-1.48","","","test","rightarrow","0","1","FALSE","FALSE",""
"null","<div style=""font-size:60px;""> </div>","null","html-keyboard-response","466","483389","0.0-32.0-2.48","","","fixation_2","","","","","",""
"null","img_1.bmp","null","image-keyboard-response","467","484390","0.0-32.0-3.48","","","img_on","","","","","",""
"null","<div style=""font-size:60px;""> </div>","null","html-keyboard-response","468","484691","0.0-32.0-4.48","","","fixation_3","","","","","",""
"null","","null","html-keyboard-response","469","484696","0.0-32.0-5.48","","","test","rightarrow","0","1","FALSE","FALSE",""
"null","<div style=""font-size:60px;""> </div>","null","html-keyboard-response","470","485004","0.0-32.0-6.48","","","fixation_4","","","","","",""
"393.69999999925494","arrows.png","39","image-keyboard-response","471","485399","0.0-32.0-7.48","","","test","rightarrow","0","1","FALSE","FALSE","true"
"null","<p style=""color: green; font-size:300%;"">correct: $2.50</p>","null","html-keyboard-response","472","486650","0.0-32.0-8.48","","","","","","","","",""
"null","<div style=""font-size:60px;""> </div>","null","html-keyboard-response","473","487704","0.0-32.0-0.49","","","fixation_1","","","","","",""
"null","switch_cue.png","null","image-keyboard-response","474","488706","0.0-32.0-1.49","","","test","leftarrow","1","1","TRUE","TRUE",""
"null","<div style=""font-size:60px;""> </div>","null","html-keyboard-response","475","489006","0.0-32.0-2.49","","","fixation_2","","","","","",""
"null","img_3.bmp","null","image-keyboard-response","476","490007","0.0-32.0-3.49","","","img_on","","","","","",""
"null","<div style=""font-size:60px;""> </div>","null","html-keyboard-response","477","490308","0.0-32.0-4.49","","","fixation_3","","","","","",""
"null","<img src=""CC1.png"" width=200 height=200/>","null","html-keyboard-response","478","491310","0.0-32.0-5.49","","","test","leftarrow","1","1","TRUE","TRUE",""
"null","<div style=""font-size:60px;""> </div>","null","html-keyboard-response","479","491611","0.0-32.0-6.49","","","fixation_4","","","","","",""
"2392.800000000745","arrows.png","37","image-keyboard-response","480","494005","0.0-32.0-7.49","","","test","leftarrow","1","1","TRUE","TRUE","true"
"null","<p style=""color: green; font-size:300%;"">correct: $7.50</p>","null","html-keyboard-response","481","495258","0.0-32.0-8.49","","","","","","","","",""
"null","<div style=""font-size:60px;""> </div>","null","html-keyboard-response","482","496309","0.0-32.0-0.50","","","fixation_1","","","","","",""
"null","switch_cue.png","null","image-keyboard-response","483","497311","0.0-32.0-1.50","","","test","uparrow","0","1","TRUE","TRUE",""
"null","<div style=""font-size:60px;""> </div>","null","html-keyboard-response","484","497612","0.0-32.0-2.50","","","fixation_2","","","","","",""
"null","img_4.bmp","null","image-keyboard-response","485","498613","0.0-32.0-3.50","","","img_on","","","","","",""
"null","<div style=""font-size:60px;""> </div>","null","html-keyboard-response","486","498915","0.0-32.0-4.50","","","fixation_3","","","","","",""
"null","<img src=""CC1.png"" width=200 height=200/>","null","html-keyboard-response","487","499916","0.0-32.0-5.50","","","test","uparrow","0","1","TRUE","TRUE",""
"null","<div style=""font-size:60px;""> </div>","null","html-keyboard-response","488","500217","0.0-32.0-6.50","","","fixation_4","","","","","",""
"394.29999999701977","arrows.png","38","image-keyboard-response","489","500612","0.0-32.0-7.50","","","test","uparrow","0","1","TRUE","TRUE","true"
"null","<p style=""color: green; font-size:300%;"">correct: $2.50</p>","null","html-keyboard-response","490","501864","0.0-32.0-8.50","","","","","","","","",""
"null","<div style=""font-size:60px;""> </div>","null","html-keyboard-response","491","503641","0.0-32.0-0.51","","","fixation_1","","","","","",""
"null","switch_cue.png","null","image-keyboard-response","492","504643","0.0-32.0-1.51","","","test","downarrow","1","1","TRUE","TRUE",""
"null","<div style=""font-size:60px;""> </div>","null","html-keyboard-response","493","504943","0.0-32.0-2.51","","","fixation_2","","","","","",""
"null","img_2.bmp","null","image-keyboard-response","494","505945","0.0-32.0-3.51","","","img_on","","","","","",""
"null","<div style=""font-size:60px;""> </div>","null","html-keyboard-response","495","506246","0.0-32.0-4.51","","","fixation_3","","","","","",""
"null","<img src=""CC1.png"" width=200 height=200/>","null","html-keyboard-response","496","507248","0.0-32.0-5.51","","","test","downarrow","1","1","TRUE","TRUE",""
"null","<div style=""font-size:60px;""> </div>","null","html-keyboard-response","497","507550","0.0-32.0-6.51","","","fixation_4","","","","","",""
"374.80000000074506","arrows.png","40","image-keyboard-response","498","507926","0.0-32.0-7.51","","","test","downarrow","1","1","TRUE","TRUE","true"
"null","<p style=""color: green; font-size:300%;"">correct: $7.50</p>","null","html-keyboard-response","499","509179","0.0-32.0-8.51","","","","","","","","",""
"null","<div style=""font-size:60px;""> </div>","null","html-keyboard-response","500","509730","0.0-32.0-0.52","","","fixation_1","","","","","",""
"null","switch_cue.png","null","image-keyboard-response","501","510732","0.0-32.0-1.52","","","test","rightarrow","1","2","TRUE","TRUE",""
"null","<div style=""font-size:60px;""> </div>","null","html-keyboard-response","502","511033","0.0-32.0-2.52","","","fixation_2","","","","","",""
"null","img_2.bmp","null","image-keyboard-response","503","512035","0.0-32.0-3.52","","","img_on","","","","","",""
"null","<div style=""font-size:60px;""> </div>","null","html-keyboard-response","504","512336","0.0-32.0-4.52","","","fixation_3","","","","","",""
"null","<img src=""CC2.png"" width=200 height=200/>","null","html-keyboard-response","505","513338","0.0-32.0-5.52","","","test","rightarrow","1","2","TRUE","TRUE",""
"null","<div style=""font-size:60px;""> </div>","null","html-keyboard-response","506","513640","0.0-32.0-6.52","","","fixation_4","","","","","",""
"1761.699999999255","arrows.png","39","image-keyboard-response","507","515402","0.0-32.0-7.52","","","test","rightarrow","1","2","TRUE","TRUE","true"
"null","<p style=""color: green; font-size:300%;"">correct: $7.50</p>","null","html-keyboard-response","508","516656","0.0-32.0-8.52","","","","","","","","",""
"null","<div style=""font-size:60px;""> </div>","null","html-keyboard-response","509","517458","0.0-32.0-0.53","","","fixation_1","","","","","",""
"null","","null","image-keyboard-response","510","517463","0.0-32.0-1.53","","","test","downarrow","0","2","TRUE","FALSE",""
"null","<div style=""font-size:60px;""> </div>","null","html-keyboard-response","511","517765","0.0-32.0-2.53","","","fixation_2","","","","","",""
"null","img_3.bmp","null","image-keyboard-response","512","518771","0.0-32.0-3.53","","","img_on","","","","","",""
"null","<div style=""font-size:60px;""> </div>","null","html-keyboard-response","513","519072","0.0-32.0-4.53","","","fixation_3","","","","","",""
"null","<img src=""CC2.png"" width=200 height=200/>","null","html-keyboard-response","514","520074","0.0-32.0-5.53","","","test","downarrow","0","2","TRUE","FALSE",""
"null","<div style=""font-size:60px;""> </div>","null","html-keyboard-response","515","520375","0.0-32.0-6.53","","","fixation_4","","","","","",""
"869.6000000014901","arrows.png","40","image-keyboard-response","516","521245","0.0-32.0-7.53","","","test","downarrow","0","2","TRUE","FALSE","true"
"null","<p style=""color: green; font-size:300%;"">correct: $2.50</p>","null","html-keyboard-response","517","522512","0.0-32.0-8.53","","","","","","","","",""
"null","<div style=""font-size:60px;""> </div>","null","html-keyboard-response","518","523813","0.0-32.0-0.54","","","fixation_1","","","","","",""
"null","","null","image-keyboard-response","519","523818","0.0-32.0-1.54","","","test","leftarrow","0","2","TRUE","FALSE",""
"null","<div style=""font-size:60px;""> </div>","null","html-keyboard-response","520","524120","0.0-32.0-2.54","","","fixation_2","","","","","",""
"null","img_4.bmp","null","image-keyboard-response","521","525121","0.0-32.0-3.54","","","img_on","","","","","",""
"null","<div style=""font-size:60px;""> </div>","null","html-keyboard-response","522","525422","0.0-32.0-4.54","","","fixation_3","","","","","",""
"null","<img src=""CC2.png"" width=200 height=200/>","null","html-keyboard-response","523","526424","0.0-32.0-5.54","","","test","leftarrow","0","2","TRUE","FALSE",""
"null","<div style=""font-size:60px;""> </div>","null","html-keyboard-response","524","526726","0.0-32.0-6.54","","","fixation_4","","","","","",""
"431.8999999985099","arrows.png","37","image-keyboard-response","525","527158","0.0-32.0-7.54","","","test","leftarrow","0","2","TRUE","FALSE","true"
"null","<p style=""color: green; font-size:300%;"">correct: $2.50</p>","null","html-keyboard-response","526","528411","0.0-32.0-8.54","","","","","","","","",""
"null","<div style=""font-size:60px;""> </div>","null","html-keyboard-response","527","529462","0.0-32.0-0.55","","","fixation_1","","","","","",""
"null","","null","image-keyboard-response","528","529467","0.0-32.0-1.55","","","test","uparrow","1","2","TRUE","FALSE",""
"null","<div style=""font-size:60px;""> </div>","null","html-keyboard-response","529","529768","0.0-32.0-2.55","","","fixation_2","","","","","",""
"null","img_1.bmp","null","image-keyboard-response","530","530770","0.0-32.0-3.55","","","img_on","","","","","",""
"null","<div style=""font-size:60px;""> </div>","null","html-keyboard-response","531","531071","0.0-32.0-4.55","","","fixation_3","","","","","",""
"null","<img src=""CC2.png"" width=200 height=200/>","null","html-keyboard-response","532","532072","0.0-32.0-5.55","","","test","uparrow","1","2","TRUE","FALSE",""
"null","<div style=""font-size:60px;""> </div>","null","html-keyboard-response","533","532373","0.0-32.0-6.55","","","fixation_4","","","","","",""
"198.90000000223517","arrows.png","38","image-keyboard-response","534","532573","0.0-32.0-7.55","","","test","uparrow","1","2","TRUE","FALSE","true"
"null","<p style=""color: green; font-size:300%;"">correct: $7.50</p>","null","html-keyboard-response","535","533826","0.0-32.0-8.55","","","","","","","","",""
"null","<div style=""font-size:60px;""> </div>","null","html-keyboard-response","536","534878","0.0-32.0-0.56","","","fixation_1","","","","","",""
"null","","null","image-keyboard-response","537","534884","0.0-32.0-1.56","","","test","leftarrow","0","2","FALSE","FALSE",""
"null","<div style=""font-size:60px;""> </div>","null","html-keyboard-response","538","535185","0.0-32.0-2.56","","","fixation_2","","","","","",""
"null","img_4.bmp","null","image-keyboard-response","539","536187","0.0-32.0-3.56","","","img_on","","","","","",""
"null","<div style=""font-size:60px;""> </div>","null","html-keyboard-response","540","536488","0.0-32.0-4.56","","","fixation_3","","","","","",""
"null","","null","html-keyboard-response","541","536493","0.0-32.0-5.56","","","test","leftarrow","0","2","FALSE","FALSE",""
"null","<div style=""font-size:60px;""> </div>","null","html-keyboard-response","542","536795","0.0-32.0-6.56","","","fixation_4","","","","","",""
"1315.6000000014901","arrows.png","37","image-keyboard-response","543","538111","0.0-32.0-7.56","","","test","leftarrow","0","2","FALSE","FALSE","true"
"null","<p style=""color: green; font-size:300%;"">correct: $2.50</p>","null","html-keyboard-response","544","539363","0.0-32.0-8.56","","","","","","","","",""
"null","<div style=""font-size:60px;""> </div>","null","html-keyboard-response","545","540415","0.0-32.0-0.57","","","fixation_1","","","","","",""
"null","","null","image-keyboard-response","546","540421","0.0-32.0-1.57","","","test","downarrow","0","2","FALSE","FALSE",""
"null","<div style=""font-size:60px;""> </div>","null","html-keyboard-response","547","540722","0.0-32.0-2.57","","","fixation_2","","","","","",""
"null","img_3.bmp","null","image-keyboard-response","548","541723","0.0-32.0-3.57","","","img_on","","","","","",""
"null","<div style=""font-size:60px;""> </div>","null","html-keyboard-response","549","542025","0.0-32.0-4.57","","","fixation_3","","","","","",""
"null","","null","html-keyboard-response","550","542030","0.0-32.0-5.57","","","test","downarrow","0","2","FALSE","FALSE",""
"null","<div style=""font-size:60px;""> </div>","null","html-keyboard-response","551","542331","0.0-32.0-6.57","","","fixation_4","","","","","",""
"1577.6000000014901","arrows.png","40","image-keyboard-response","552","543910","0.0-32.0-7.57","","","test","downarrow","0","2","FALSE","FALSE","true"
"null","<p style=""color: green; font-size:300%;"">correct: $2.50</p>","null","html-keyboard-response","553","545162","0.0-32.0-8.57","","","","","","","","",""
"null","<div style=""font-size:60px;""> </div>","null","html-keyboard-response","554","545964","0.0-32.0-0.58","","","fixation_1","","","","","",""
"null","","null","image-keyboard-response","555","545969","0.0-32.0-1.58","","","test","rightarrow","1","2","FALSE","FALSE",""
"null","<div style=""font-size:60px;""> </div>","null","html-keyboard-response","556","546271","0.0-32.0-2.58","","","fixation_2","","","","","",""
"null","img_2.bmp","null","image-keyboard-response","557","547273","0.0-32.0-3.58","","","img_on","","","","","",""
"null","<div style=""font-size:60px;""> </div>","null","html-keyboard-response","558","547574","0.0-32.0-4.58","","","fixation_3","","","","","",""
"null","","null","html-keyboard-response","559","547580","0.0-32.0-5.58","","","test","rightarrow","1","2","FALSE","FALSE",""
"null","<div style=""font-size:60px;""> </div>","null","html-keyboard-response","560","547882","0.0-32.0-6.58","","","fixation_4","","","","","",""
"462.19999999925494","arrows.png","39","image-keyboard-response","561","548345","0.0-32.0-7.58","","","test","rightarrow","1","2","FALSE","FALSE","true"
"null","<p style=""color: green; font-size:300%;"">correct: $7.50</p>","null","html-keyboard-response","562","549598","0.0-32.0-8.58","","","","","","","","",""
"null","<div style=""font-size:60px;""> </div>","null","html-keyboard-response","563","550149","0.0-32.0-0.59","","","fixation_1","","","","","",""
"null","","null","image-keyboard-response","564","550154","0.0-32.0-1.59","","","test","uparrow","1","2","FALSE","FALSE",""
"null","<div style=""font-size:60px;""> </div>","null","html-keyboard-response","565","550456","0.0-32.0-2.59","","","fixation_2","","","","","",""
"null","img_1.bmp","null","image-keyboard-response","566","551457","0.0-32.0-3.59","","","img_on","","","","","",""
"null","<div style=""font-size:60px;""> </div>","null","html-keyboard-response","567","551760","0.0-32.0-4.59","","","fixation_3","","","","","",""
"null","","null","html-keyboard-response","568","551765","0.0-32.0-5.59","","","test","uparrow","1","2","FALSE","FALSE",""
"null","<div style=""font-size:60px;""> </div>","null","html-keyboard-response","569","552065","0.0-32.0-6.59","","","fixation_4","","","","","",""
"1211.5999999977648","arrows.png","38","image-keyboard-response","570","553278","0.0-32.0-7.59","","","test","uparrow","1","2","FALSE","FALSE","true"
"null","<p style=""color: green; font-size:300%;"">correct: $7.50</p>","null","html-keyboard-response","571","554530","0.0-32.0-8.59","","","","","","","","",""
"null","<div style=""font-size:60px;""> </div>","null","html-keyboard-response","572","555332","0.0-32.0-0.60","","","fixation_1","","","","","",""
"null","","null","image-keyboard-response","573","555336","0.0-32.0-1.60","","","test","leftarrow","0","2","FALSE","FALSE",""
"null","<div style=""font-size:60px;""> </div>","null","html-keyboard-response","574","555638","0.0-32.0-2.60","","","fixation_2","","","","","",""
"null","img_4.bmp","null","image-keyboard-response","575","556640","0.0-32.0-3.60","","","img_on","","","","","",""
"null","<div style=""font-size:60px;""> </div>","null","html-keyboard-response","576","556941","0.0-32.0-4.60","","","fixation_3","","","","","",""
"null","","null","html-keyboard-response","577","556946","0.0-32.0-5.60","","","test","leftarrow","0","2","FALSE","FALSE",""
"null","<div style=""font-size:60px;""> </div>","null","html-keyboard-response","578","557247","0.0-32.0-6.60","","","fixation_4","","","","","",""
"543.8000000007451","arrows.png","37","image-keyboard-response","579","557791","0.0-32.0-7.60","","","test","leftarrow","0","2","FALSE","FALSE","true"
"null","<p style=""color: green; font-size:300%;"">correct: $2.50</p>","null","html-keyboard-response","580","559043","0.0-32.0-8.60","","","","","","","","",""
"null","<div style=""font-size:60px;""> </div>","null","html-keyboard-response","581","559857","0.0-32.0-0.61","","","fixation_1","","","","","",""
"null","","null","image-keyboard-response","582","559863","0.0-32.0-1.61","","","test","rightarrow","1","2","FALSE","FALSE",""
"null","<div style=""font-size:60px;""> </div>","null","html-keyboard-response","583","560164","0.0-32.0-2.61","","","fixation_2","","","","","",""
"null","img_2.bmp","null","image-keyboard-response","584","561165","0.0-32.0-3.61","","","img_on","","","","","",""
"null","<div style=""font-size:60px;""> </div>","null","html-keyboard-response","585","561466","0.0-32.0-4.61","","","fixation_3","","","","","",""
"null","","null","html-keyboard-response","586","561471","0.0-32.0-5.61","","","test","rightarrow","1","2","FALSE","FALSE",""
"null","<div style=""font-size:60px;""> </div>","null","html-keyboard-response","587","561772","0.0-32.0-6.61","","","fixation_4","","","","","",""
"1031.800000000745","arrows.png","39","image-keyboard-response","588","562805","0.0-32.0-7.61","","","test","rightarrow","1","2","FALSE","FALSE","true"
"null","<p style=""color: green; font-size:300%;"">correct: $7.50</p>","null","html-keyboard-response","589","564056","0.0-32.0-8.61","","","","","","","","",""
"null","<div style=""font-size:60px;""> </div>","null","html-keyboard-response","590","565609","0.0-32.0-0.62","","","fixation_1","","","","","",""
"null","","null","image-keyboard-response","591","565614","0.0-32.0-1.62","","","test","uparrow","1","2","FALSE","FALSE",""
"null","<div style=""font-size:60px;""> </div>","null","html-keyboard-response","592","565916","0.0-32.0-2.62","","","fixation_2","","","","","",""
"null","img_1.bmp","null","image-keyboard-response","593","566918","0.0-32.0-3.62","","","img_on","","","","","",""
"null","<div style=""font-size:60px;""> </div>","null","html-keyboard-response","594","567219","0.0-32.0-4.62","","","fixation_3","","","","","",""
"null","","null","html-keyboard-response","595","567224","0.0-32.0-5.62","","","test","uparrow","1","2","FALSE","FALSE",""
"null","<div style=""font-size:60px;""> </div>","null","html-keyboard-response","596","567525","0.0-32.0-6.62","","","fixation_4","","","","","",""
"377.5999999977648","arrows.png","38","image-keyboard-response","597","567903","0.0-32.0-7.62","","","test","uparrow","1","2","FALSE","FALSE","true"
"null","<p style=""color: green; font-size:300%;"">correct: $7.50</p>","null","html-keyboard-response","598","569155","0.0-32.0-8.62","","","","","","","","",""
"null","<div style=""font-size:60px;""> </div>","null","html-keyboard-response","599","570457","0.0-32.0-0.63","","","fixation_1","","","","","",""
"null","","null","image-keyboard-response","600","570462","0.0-32.0-1.63","","","test","downarrow","0","2","FALSE","FALSE",""
"null","<div style=""font-size:60px;""> </div>","null","html-keyboard-response","601","570763","0.0-32.0-2.63","","","fixation_2","","","","","",""
"null","img_3.bmp","null","image-keyboard-response","602","571764","0.0-32.0-3.63","","","img_on","","","","","",""
"null","<div style=""font-size:60px;""> </div>","null","html-keyboard-response","603","572066","0.0-32.0-4.63","","","fixation_3","","","","","",""
"null","","null","html-keyboard-response","604","572071","0.0-32.0-5.63","","","test","downarrow","0","2","FALSE","FALSE",""
"null","<div style=""font-size:60px;""> </div>","null","html-keyboard-response","605","572372","0.0-32.0-6.63","","","fixation_4","","","","","",""
"978.3999999985099","arrows.png","40","image-keyboard-response","606","573352","0.0-32.0-7.63","","","test","downarrow","0","2","FALSE","FALSE","true"
"null","<p style=""color: green; font-size:300%;"">correct: $2.50</p>","null","html-keyboard-response","607","574604","0.0-32.0-8.63","","","","","","","","",""
"null","<div style=""font-size:60px;""> </div>","null","html-keyboard-response","608","575907","0.0-32.0-0.64","","","fixation_1","","","","","",""
"null","switch_cue.png","null","image-keyboard-response","609","576909","0.0-32.0-1.64","","","test","uparrow","0","1","TRUE","TRUE",""
"null","<div style=""font-size:60px;""> </div>","null","html-keyboard-response","610","577210","0.0-32.0-2.64","","","fixation_2","","","","","",""
"null","img_4.bmp","null","image-keyboard-response","611","578211","0.0-32.0-3.64","","","img_on","","","","","",""
"null","<div style=""font-size:60px;""> </div>","null","html-keyboard-response","612","578512","0.0-32.0-4.64","","","fixation_3","","","","","",""
"null","<img src=""CC1.png"" width=200 height=200/>","null","html-keyboard-response","613","579513","0.0-32.0-5.64","","","test","uparrow","0","1","TRUE","TRUE",""
"null","<div style=""font-size:60px;""> </div>","null","html-keyboard-response","614","579814","0.0-32.0-6.64","","","fixation_4","","","","","",""
"479","arrows.png","38","image-keyboard-response","615","580294","0.0-32.0-7.64","","","test","uparrow","0","1","TRUE","TRUE","true"
"null","<p style=""color: green; font-size:300%;"">correct: $2.50</p>","null","html-keyboard-response","616","581564","0.0-32.0-8.64","","","","","","","","",""
"null","<div style=""font-size:60px;""> </div>","null","html-keyboard-response","617","582379","0.0-32.0-0.65","","","fixation_1","","","","","",""
"null","","null","image-keyboard-response","618","582385","0.0-32.0-1.65","","","test","downarrow","1","1","TRUE","FALSE",""
"null","<div style=""font-size:60px;""> </div>","null","html-keyboard-response","619","582686","0.0-32.0-2.65","","","fixation_2","","","","","",""
"null","img_2.bmp","null","image-keyboard-response","620","583693","0.0-32.0-3.65","","","img_on","","","","","",""
"null","<div style=""font-size:60px;""> </div>","null","html-keyboard-response","621","583994","0.0-32.0-4.65","","","fixation_3","","","","","",""
"null","<img src=""CC1.png"" width=200 height=200/>","null","html-keyboard-response","622","584995","0.0-32.0-5.65","","","test","downarrow","1","1","TRUE","FALSE",""
"null","<div style=""font-size:60px;""> </div>","null","html-keyboard-response","623","585296","0.0-32.0-6.65","","","fixation_4","","","","","",""
"410.30000000074506","arrows.png","40","image-keyboard-response","624","585707","0.0-32.0-7.65","","","test","downarrow","1","1","TRUE","FALSE","true"
"null","<p style=""color: green; font-size:300%;"">correct: $7.50</p>","null","html-keyboard-response","625","586964","0.0-32.0-8.65","","","","","","","","",""
"null","<div style=""font-size:60px;""> </div>","null","html-keyboard-response","626","588016","0.0-32.0-0.66","","","fixation_1","","","","","",""
"null","","null","image-keyboard-response","627","588022","0.0-32.0-1.66","","","test","leftarrow","1","1","TRUE","FALSE",""
"null","<div style=""font-size:60px;""> </div>","null","html-keyboard-response","628","588323","0.0-32.0-2.66","","","fixation_2","","","","","",""
"null","img_3.bmp","null","image-keyboard-response","629","589325","0.0-32.0-3.66","","","img_on","","","","","",""
"null","<div style=""font-size:60px;""> </div>","null","html-keyboard-response","630","589626","0.0-32.0-4.66","","","fixation_3","","","","","",""
"null","<img src=""CC1.png"" width=200 height=200/>","null","html-keyboard-response","631","590628","0.0-32.0-5.66","","","test","leftarrow","1","1","TRUE","FALSE",""
"null","<div style=""font-size:60px;""> </div>","null","html-keyboard-response","632","590930","0.0-32.0-6.66","","","fixation_4","","","","","",""
"322.9000000022352","arrows.png","37","image-keyboard-response","633","591253","0.0-32.0-7.66","","","test","leftarrow","1","1","TRUE","FALSE","true"
"null","<p style=""color: green; font-size:300%;"">correct: $7.50</p>","null","html-keyboard-response","634","592505","0.0-32.0-8.66","","","","","","","","",""
"null","<div style=""font-size:60px;""> </div>","null","html-keyboard-response","635","593308","0.0-32.0-0.67","","","fixation_1","","","","","",""
"null","","null","image-keyboard-response","636","593314","0.0-32.0-1.67","","","test","rightarrow","0","1","TRUE","FALSE",""
"null","<div style=""font-size:60px;""> </div>","null","html-keyboard-response","637","593616","0.0-32.0-2.67","","","fixation_2","","","","","",""
"null","img_1.bmp","null","image-keyboard-response","638","594617","0.0-32.0-3.67","","","img_on","","","","","",""
"null","<div style=""font-size:60px;""> </div>","null","html-keyboard-response","639","594918","0.0-32.0-4.67","","","fixation_3","","","","","",""
"null","<img src=""CC1.png"" width=200 height=200/>","null","html-keyboard-response","640","595920","0.0-32.0-5.67","","","test","rightarrow","0","1","TRUE","FALSE",""
"null","<div style=""font-size:60px;""> </div>","null","html-keyboard-response","641","596223","0.0-32.0-6.67","","","fixation_4","","","","","",""
"280.19999999925494","arrows.png","39","image-keyboard-response","642","596504","0.0-32.0-7.67","","","test","rightarrow","0","1","TRUE","FALSE","true"
"null","<p style=""color: green; font-size:300%;"">correct: $2.50</p>","null","html-keyboard-response","643","597757","0.0-32.0-8.67","","","","","","","","",""
"null","<div style=""font-size:60px;""> </div>","null","html-keyboard-response","644","598309","0.0-32.0-0.68","","","fixation_1","","","","","",""
"null","","null","image-keyboard-response","645","598315","0.0-32.0-1.68","","","test","uparrow","0","1","FALSE","FALSE",""
"null","<div style=""font-size:60px;""> </div>","null","html-keyboard-response","646","598615","0.0-32.0-2.68","","","fixation_2","","","","","",""
"null","img_4.bmp","null","image-keyboard-response","647","599617","0.0-32.0-3.68","","","img_on","","","","","",""
"null","<div style=""font-size:60px;""> </div>","null","html-keyboard-response","648","599918","0.0-32.0-4.68","","","fixation_3","","","","","",""
"null","","null","html-keyboard-response","649","599923","0.0-32.0-5.68","","","test","uparrow","0","1","FALSE","FALSE",""
"null","<div style=""font-size:60px;""> </div>","null","html-keyboard-response","650","600225","0.0-32.0-6.68","","","fixation_4","","","","","",""
"1154","arrows.png","38","image-keyboard-response","651","601380","0.0-32.0-7.68","","","test","uparrow","0","1","FALSE","FALSE","true"
"null","<p style=""color: green; font-size:300%;"">correct: $2.50</p>","null","html-keyboard-response","652","602632","0.0-32.0-8.68","","","","","","","","",""
"null","<div style=""font-size:60px;""> </div>","null","html-keyboard-response","653","603936","0.0-32.0-0.69","","","fixation_1","","","","","",""
"null","","null","image-keyboard-response","654","603941","0.0-32.0-1.69","","","test","leftarrow","1","1","FALSE","FALSE",""
"null","<div style=""font-size:60px;""> </div>","null","html-keyboard-response","655","604242","0.0-32.0-2.69","","","fixation_2","","","","","",""
"null","img_3.bmp","null","image-keyboard-response","656","605244","0.0-32.0-3.69","","","img_on","","","","","",""
"null","<div style=""font-size:60px;""> </div>","null","html-keyboard-response","657","605546","0.0-32.0-4.69","","","fixation_3","","","","","",""
"null","","null","html-keyboard-response","658","605551","0.0-32.0-5.69","","","test","leftarrow","1","1","FALSE","FALSE",""
"null","<div style=""font-size:60px;""> </div>","null","html-keyboard-response","659","605853","0.0-32.0-6.69","","","fixation_4","","","","","",""
"523.9000000022352","arrows.png","37","image-keyboard-response","660","606377","0.0-32.0-7.69","","","test","leftarrow","1","1","FALSE","FALSE","true"
"null","<p style=""color: green; font-size:300%;"">correct: $7.50</p>","null","html-keyboard-response","661","607630","0.0-32.0-8.69","","","","","","","","",""
"null","<div style=""font-size:60px;""> </div>","null","html-keyboard-response","662","609189","0.0-32.0-0.70","","","fixation_1","","","","","",""
"null","","null","image-keyboard-response","663","609194","0.0-32.0-1.70","","","test","rightarrow","0","1","FALSE","FALSE",""
"null","<div style=""font-size:60px;""> </div>","null","html-keyboard-response","664","609494","0.0-32.0-2.70","","","fixation_2","","","","","",""
"null","img_1.bmp","null","image-keyboard-response","665","610497","0.0-32.0-3.70","","","img_on","","","","","",""
"null","<div style=""font-size:60px;""> </div>","null","html-keyboard-response","666","610798","0.0-32.0-4.70","","","fixation_3","","","","","",""
"null","","null","html-keyboard-response","667","610803","0.0-32.0-5.70","","","test","rightarrow","0","1","FALSE","FALSE",""
"null","<div style=""font-size:60px;""> </div>","null","html-keyboard-response","668","611106","0.0-32.0-6.70","","","fixation_4","","","","","",""
"678.1999999992549","arrows.png","39","image-keyboard-response","669","611784","0.0-32.0-7.70","","","test","rightarrow","0","1","FALSE","FALSE","true"
"null","<p style=""color: green; font-size:300%;"">correct: $2.50</p>","null","html-keyboard-response","670","613037","0.0-32.0-8.70","","","","","","","","",""
"null","<div style=""font-size:60px;""> </div>","null","html-keyboard-response","671","614089","0.0-32.0-0.71","","","fixation_1","","","","","",""
"null","","null","image-keyboard-response","672","614094","0.0-32.0-1.71","","","test","downarrow","1","1","FALSE","FALSE",""
"null","<div style=""font-size:60px;""> </div>","null","html-keyboard-response","673","614396","0.0-32.0-2.71","","","fixation_2","","","","","",""
"null","img_2.bmp","null","image-keyboard-response","674","615398","0.0-32.0-3.71","","","img_on","","","","","",""
"null","<div style=""font-size:60px;""> </div>","null","html-keyboard-response","675","615699","0.0-32.0-4.71","","","fixation_3","","","","","",""
"null","","null","html-keyboard-response","676","615704","0.0-32.0-5.71","","","test","downarrow","1","1","FALSE","FALSE",""
"null","<div style=""font-size:60px;""> </div>","null","html-keyboard-response","677","616016","0.0-32.0-6.71","","","fixation_4","","","","","",""
"563.9000000022352","arrows.png","40","image-keyboard-response","678","616581","0.0-32.0-7.71","","","test","downarrow","1","1","FALSE","FALSE","true"
"null","<p style=""color: green; font-size:300%;"">correct: $7.50</p>","null","html-keyboard-response","679","617832","0.0-32.0-8.71","","","","","","","","",""
"null","<div style=""font-size:60px;""> </div>","null","html-keyboard-response","680","618885","0.0-32.0-0.72","","","fixation_1","","","","","",""
"null","","null","image-keyboard-response","681","618890","0.0-32.0-1.72","","","test","rightarrow","0","1","FALSE","FALSE",""
"null","<div style=""font-size:60px;""> </div>","null","html-keyboard-response","682","619191","0.0-32.0-2.72","","","fixation_2","","","","","",""
"null","img_1.bmp","null","image-keyboard-response","683","620192","0.0-32.0-3.72","","","img_on","","","","","",""
"null","<div style=""font-size:60px;""> </div>","null","html-keyboard-response","684","620494","0.0-32.0-4.72","","","fixation_3","","","","","",""
"null","","null","html-keyboard-response","685","620499","0.0-32.0-5.72","","","test","rightarrow","0","1","FALSE","FALSE",""
"null","<div style=""font-size:60px;""> </div>","null","html-keyboard-response","686","620801","0.0-32.0-6.72","","","fixation_4","","","","","",""
"1046.199999999255","arrows.png","39","image-keyboard-response","687","621848","0.0-32.0-7.72","","","test","rightarrow","0","1","FALSE","FALSE","true"
"null","<p style=""color: green; font-size:300%;"">correct: $2.50</p>","null","html-keyboard-response","688","623100","0.0-32.0-8.72","","","","","","","","",""
"null","<div style=""font-size:60px;""> </div>","null","html-keyboard-response","689","624402","0.0-32.0-0.73","","","fixation_1","","","","","",""
"null","","null","image-keyboard-response","690","624408","0.0-32.0-1.73","","","test","leftarrow","1","1","FALSE","FALSE",""
"null","<div style=""font-size:60px;""> </div>","null","html-keyboard-response","691","624709","0.0-32.0-2.73","","","fixation_2","","","","","",""
"null","img_3.bmp","null","image-keyboard-response","692","625713","0.0-32.0-3.73","","","img_on","","","","","",""
"null","<div style=""font-size:60px;""> </div>","null","html-keyboard-response","693","626015","0.0-32.0-4.73","","","fixation_3","","","","","",""
