"rt","stimulus","key_press","trial_type","trial_index","time_elapsed","internal_node_id","responses","view_history","test_part","correct_response","outcome","context","cc","sc","correct"
"3723.2999999523163","<p><b>Welcome to the Picture Learning Game!</b></p>
      <p>The game will take ~35 minutes to complete, and you can make up to $17.50.</p>
      <p>You must use a desktop or laptop computer computer (no mobile devices).</p>
      <p><em>Press any key to continue.</em></p>","32","html-keyboard-response","0","3737","0.0-0.0","","","","","","","","",""
"2400","","","survey-text","1","6141","0.0-1.0","{""aws"":""A3RU7ANMLXJQF6""}","","","","","","","",""
"6248.199999988079","","","survey-text","2","12395","0.0-2.0","{""age"":""30"",""english"":""Y"",""handedness"":""L"",""desktop"":""Y""}","","","","","","","",""
"13904.799999952316","","","instructions","3","26301","0.0-3.0","","[{""page_index"":0,""viewing_time"":1020.6999999880791},{""page_index"":1,""viewing_time"":4353.800000011921},{""page_index"":2,""viewing_time"":2161.2999999523163},{""page_index"":3,""viewing_time"":3998.600000023842},{""page_index"":4,""viewing_time"":2369.899999976158}]","","","","","","",""
"null","sample1.bmp","null","image-keyboard-response","4","27322","0.0-4.0","","","","","","","","",""
"514.6000000238419","arrows.png","38","image-keyboard-response","5","28157","0.0-5.0","","","","","","","","",""
"7525.600000023842","","","instructions","6","35682","0.0-6.0","","[{""page_index"":0,""viewing_time"":1745.199999988079},{""page_index"":1,""viewing_time"":4006.100000023842},{""page_index"":2,""viewing_time"":1773.8999999761581}]","","","","","","",""
"null","sample1.bmp","null","image-keyboard-response","7","36684","0.0-7.0","","","","","","","","",""
"null","<img src=""CC1.png"" width=200 height=200/>","null","html-keyboard-response","8","37987","0.0-8.0","","","","","","","","",""
"267.19999998807907","arrows.png","38","image-keyboard-response","9","38557","0.0-9.0","","","","","","","","",""
"3819.600000023842","","","instructions","10","42377","0.0-10.0","","[{""page_index"":0,""viewing_time"":1835},{""page_index"":1,""viewing_time"":1984.3999999761581}]","","","","","","",""
"null","sample1.bmp","null","image-keyboard-response","11","43378","0.0-11.0","","","","","","","","",""
"null","<img src=""CC2.png"" width=200 height=200/>","null","html-keyboard-response","12","44680","0.0-12.0","","","","","","","","",""
"365.39999997615814","arrows.png","39","image-keyboard-response","13","45347","0.0-13.0","","","","","","","","",""
"14073.5","","","instructions","14","59421","0.0-14.0","","[{""page_index"":0,""viewing_time"":1655.199999988079},{""page_index"":1,""viewing_time"":3237.800000011921},{""page_index"":2,""viewing_time"":4601.899999976158},{""page_index"":3,""viewing_time"":1806.300000011921},{""page_index"":4,""viewing_time"":2771.899999976158}]","","","","","","",""
"null","sample1.bmp","null","image-keyboard-response","15","60424","0.0-15.0","","","","","","","","",""
"1298.3999999761581","arrows.png","39","image-keyboard-response","16","62024","0.0-16.0","","","","","","","","",""
"11280.899999976158","","","instructions","17","73305","0.0-17.0","","[{""page_index"":0,""viewing_time"":2308.199999988079},{""page_index"":1,""viewing_time"":3951.800000011921},{""page_index"":2,""viewing_time"":5020.399999976158}]","","","","","","",""
"null","sample1.bmp","null","image-keyboard-response","18","74306","0.0-18.0","","","","","","","","",""
"460.19999998807907","arrows.png","39","image-keyboard-response","19","75068","0.0-19.0","","","","","","","","",""
"null","<p style=""color: green; font-size:300%;"">correct</p>","null","html-keyboard-response","20","76069","0.0-20.0","","","","","","","","",""
"null","switch_cue.png","null","image-keyboard-response","21","77372","0.0-21.0","","","","","","","","",""
"null","sample1.bmp","null","image-keyboard-response","22","78684","0.0-22.0","","","","","","","","",""
"null","<img src=""CC2.png"" width=200 height=200/>","null","html-keyboard-response","23","79987","0.0-23.0","","","","","","","","",""
"403.5999999642372","arrows.png","39","image-keyboard-response","24","80692","0.0-24.0","","","","","","","","",""
"null","<p style=""color: green; font-size:300%;"">correct</p>","null","html-keyboard-response","25","81694","0.0-25.0","","","","","","","","",""
"null","switch_cue.png","null","image-keyboard-response","26","82996","0.0-26.0","","","","","","","","",""
"null","sample1.bmp","null","image-keyboard-response","27","84299","0.0-27.0","","","","","","","","",""
"null","<img src=""CC1.png"" width=200 height=200/>","null","html-keyboard-response","28","85602","0.0-28.0","","","","","","","","",""
"232.60000002384186","arrows.png","38","image-keyboard-response","29","86137","0.0-29.0","","","","","","","","",""
"null","<p style=""color: green; font-size:300%;"">correct</p>","null","html-keyboard-response","30","87138","0.0-30.0","","","","","","","","",""
"29925.5","","","instructions","31","117364","0.0-31.0","","[{""page_index"":0,""viewing_time"":3480.800000011921},{""page_index"":1,""viewing_time"":2440.5},{""page_index"":2,""viewing_time"":3067.699999988079},{""page_index"":3,""viewing_time"":4850},{""page_index"":4,""viewing_time"":4711.899999976158},{""page_index"":5,""viewing_time"":2000.1000000238419},{""page_index"":6,""viewing_time"":8259.5},{""page_index"":7,""viewing_time"":1114.3999999761581}]","","","","","","",""
"null","<div style=""font-size:60px;""> </div>","null","html-keyboard-response","32","117666","0.0-32.0-0.0","","","fixation_1","","","","","",""
"null","","null","image-keyboard-response","33","117670","0.0-32.0-1.0","","","test","uparrow","0","1","TRUE","FALSE",""
"null","<div style=""font-size:60px;""> </div>","null","html-keyboard-response","34","117971","0.0-32.0-2.0","","","fixation_2","","","","","",""
"null","img_4.bmp","null","image-keyboard-response","35","118976","0.0-32.0-3.0","","","img_on","","","","","",""
"null","<div style=""font-size:60px;""> </div>","null","html-keyboard-response","36","119278","0.0-32.0-4.0","","","fixation_3","","","","","",""
"null","<img src=""CC1.png"" width=200 height=200/>","null","html-keyboard-response","37","120281","0.0-32.0-5.0","","","test","uparrow","0","1","TRUE","FALSE",""
"null","<div style=""font-size:60px;""> </div>","null","html-keyboard-response","38","120583","0.0-32.0-6.0","","","fixation_4","","","","","",""
"483.5","arrows.png","38","image-keyboard-response","39","121068","0.0-32.0-7.0","","","test","uparrow","0","1","TRUE","FALSE","true"
"null","<p style=""color: green; font-size:300%;"">correct: $2.50</p>","null","html-keyboard-response","40","122320","0.0-32.0-8.0","","","","","","","","",""
"null","<div style=""font-size:60px;""> </div>","null","html-keyboard-response","41","123622","0.0-32.0-0.1","","","fixation_1","","","","","",""
"null","","null","image-keyboard-response","42","123628","0.0-32.0-1.1","","","test","leftarrow","1","1","TRUE","FALSE",""
"null","<div style=""font-size:60px;""> </div>","null","html-keyboard-response","43","123930","0.0-32.0-2.1","","","fixation_2","","","","","",""
"null","img_3.bmp","null","image-keyboard-response","44","124932","0.0-32.0-3.1","","","img_on","","","","","",""
"null","<div style=""font-size:60px;""> </div>","null","html-keyboard-response","45","125234","0.0-32.0-4.1","","","fixation_3","","","","","",""
"null","<img src=""CC1.png"" width=200 height=200/>","null","html-keyboard-response","46","126237","0.0-32.0-5.1","","","test","leftarrow","1","1","TRUE","FALSE",""
"null","<div style=""font-size:60px;""> </div>","null","html-keyboard-response","47","126538","0.0-32.0-6.1","","","fixation_4","","","","","",""
"26.80000001192093","arrows.png","37","image-keyboard-response","48","126566","0.0-32.0-7.1","","","test","leftarrow","1","1","TRUE","FALSE","true"
"null","<p style=""color: green; font-size:300%;"">correct: $7.50</p>","null","html-keyboard-response","49","127818","0.0-32.0-8.1","","","","","","","","",""
"null","<div style=""font-size:60px;""> </div>","null","html-keyboard-response","50","128371","0.0-32.0-0.2","","","fixation_1","","","","","",""
"null","","null","image-keyboard-response","51","128377","0.0-32.0-1.2","","","test","rightarrow","0","1","TRUE","FALSE",""
"null","<div style=""font-size:60px;""> </div>","null","html-keyboard-response","52","128679","0.0-32.0-2.2","","","fixation_2","","","","","",""
"null","img_1.bmp","null","image-keyboard-response","53","129682","0.0-32.0-3.2","","","img_on","","","","","",""
"null","<div style=""font-size:60px;""> </div>","null","html-keyboard-response","54","129984","0.0-32.0-4.2","","","fixation_3","","","","","",""
"null","<img src=""CC1.png"" width=200 height=200/>","null","html-keyboard-response","55","130986","0.0-32.0-5.2","","","test","rightarrow","0","1","TRUE","FALSE",""
"null","<div style=""font-size:60px;""> </div>","null","html-keyboard-response","56","131287","0.0-32.0-6.2","","","fixation_4","","","","","",""
"162.89999997615814","arrows.png","40","image-keyboard-response","57","131451","0.0-32.0-7.2","","","test","rightarrow","0","1","TRUE","FALSE","false"
"null","<p style=""color: red; font-size:300%;"">incorrect: $0</p>","null","html-keyboard-response","58","132704","0.0-32.0-8.2","","","","","","","","",""
"null","<div style=""font-size:60px;""> </div>","null","html-keyboard-response","59","133257","0.0-32.0-0.3","","","fixation_1","","","","","",""
"null","","null","image-keyboard-response","60","133264","0.0-32.0-1.3","","","test","downarrow","1","1","TRUE","FALSE",""
"null","<div style=""font-size:60px;""> </div>","null","html-keyboard-response","61","133565","0.0-32.0-2.3","","","fixation_2","","","","","",""
"null","img_2.bmp","null","image-keyboard-response","62","134567","0.0-32.0-3.3","","","img_on","","","","","",""
"null","<div style=""font-size:60px;""> </div>","null","html-keyboard-response","63","134869","0.0-32.0-4.3","","","fixation_3","","","","","",""
"null","<img src=""CC1.png"" width=200 height=200/>","null","html-keyboard-response","64","135871","0.0-32.0-5.3","","","test","downarrow","1","1","TRUE","FALSE",""
"null","<div style=""font-size:60px;""> </div>","null","html-keyboard-response","65","136173","0.0-32.0-6.3","","","fixation_4","","","","","",""
"243.60000002384186","arrows.png","40","image-keyboard-response","66","136418","0.0-32.0-7.3","","","test","downarrow","1","1","TRUE","FALSE","true"
"null","<p style=""color: green; font-size:300%;"">correct: $7.50</p>","null","html-keyboard-response","67","137672","0.0-32.0-8.3","","","","","","","","",""
"null","<div style=""font-size:60px;""> </div>","null","html-keyboard-response","68","138975","0.0-32.0-0.4","","","fixation_1","","","","","",""
"null","","null","image-keyboard-response","69","138981","0.0-32.0-1.4","","","test","rightarrow","0","1","FALSE","FALSE",""
"null","<div style=""font-size:60px;""> </div>","null","html-keyboard-response","70","139284","0.0-32.0-2.4","","","fixation_2","","","","","",""
"null","img_1.bmp","null","image-keyboard-response","71","140286","0.0-32.0-3.4","","","img_on","","","","","",""
"null","<div style=""font-size:60px;""> </div>","null","html-keyboard-response","72","140588","0.0-32.0-4.4","","","fixation_3","","","","","",""
"null","","null","html-keyboard-response","73","140593","0.0-32.0-5.4","","","test","rightarrow","0","1","FALSE","FALSE",""
"null","<div style=""font-size:60px;""> </div>","null","html-keyboard-response","74","140895","0.0-32.0-6.4","","","fixation_4","","","","","",""
"646.1999999880791","arrows.png","39","image-keyboard-response","75","141543","0.0-32.0-7.4","","","test","rightarrow","0","1","FALSE","FALSE","true"
"null","<p style=""color: green; font-size:300%;"">correct: $2.50</p>","null","html-keyboard-response","76","142810","0.0-32.0-8.4","","","","","","","","",""
"null","<div style=""font-size:60px;""> </div>","null","html-keyboard-response","77","143364","0.0-32.0-0.5","","","fixation_1","","","","","",""
"null","","null","image-keyboard-response","78","143370","0.0-32.0-1.5","","","test","downarrow","1","1","FALSE","FALSE",""
"null","<div style=""font-size:60px;""> </div>","null","html-keyboard-response","79","143671","0.0-32.0-2.5","","","fixation_2","","","","","",""
"null","img_2.bmp","null","image-keyboard-response","80","144673","0.0-32.0-3.5","","","img_on","","","","","",""
"null","<div style=""font-size:60px;""> </div>","null","html-keyboard-response","81","144974","0.0-32.0-4.5","","","fixation_3","","","","","",""
"null","","null","html-keyboard-response","82","144980","0.0-32.0-5.5","","","test","downarrow","1","1","FALSE","FALSE",""
"null","<div style=""font-size:60px;""> </div>","null","html-keyboard-response","83","145282","0.0-32.0-6.5","","","fixation_4","","","","","",""
"437.2000000476837","arrows.png","40","image-keyboard-response","84","145720","0.0-32.0-7.5","","","test","downarrow","1","1","FALSE","FALSE","true"
"null","<p style=""color: green; font-size:300%;"">correct: $7.50</p>","null","html-keyboard-response","85","146972","0.0-32.0-8.5","","","","","","","","",""
"null","<div style=""font-size:60px;""> </div>","null","html-keyboard-response","86","147775","0.0-32.0-0.6","","","fixation_1","","","","","",""
"null","","null","image-keyboard-response","87","147781","0.0-32.0-1.6","","","test","uparrow","0","1","FALSE","FALSE",""
"null","<div style=""font-size:60px;""> </div>","null","html-keyboard-response","88","148082","0.0-32.0-2.6","","","fixation_2","","","","","",""
"null","img_4.bmp","null","image-keyboard-response","89","149086","0.0-32.0-3.6","","","img_on","","","","","",""
"null","<div style=""font-size:60px;""> </div>","null","html-keyboard-response","90","149388","0.0-32.0-4.6","","","fixation_3","","","","","",""
"null","","null","html-keyboard-response","91","149393","0.0-32.0-5.6","","","test","uparrow","0","1","FALSE","FALSE",""
"null","<div style=""font-size:60px;""> </div>","null","html-keyboard-response","92","149694","0.0-32.0-6.6","","","fixation_4","","","","","",""
"112.19999998807907","arrows.png","38","image-keyboard-response","93","149808","0.0-32.0-7.6","","","test","uparrow","0","1","FALSE","FALSE","true"
"null","<p style=""color: green; font-size:300%;"">correct: $2.50</p>","null","html-keyboard-response","94","151060","0.0-32.0-8.6","","","","","","","","",""
"null","<div style=""font-size:60px;""> </div>","null","html-keyboard-response","95","151613","0.0-32.0-0.7","","","fixation_1","","","","","",""
"null","","null","image-keyboard-response","96","151619","0.0-32.0-1.7","","","test","leftarrow","1","1","FALSE","FALSE",""
"null","<div style=""font-size:60px;""> </div>","null","html-keyboard-response","97","151920","0.0-32.0-2.7","","","fixation_2","","","","","",""
"null","img_3.bmp","null","image-keyboard-response","98","152922","0.0-32.0-3.7","","","img_on","","","","","",""
"null","<div style=""font-size:60px;""> </div>","null","html-keyboard-response","99","153224","0.0-32.0-4.7","","","fixation_3","","","","","",""
"null","","null","html-keyboard-response","100","153230","0.0-32.0-5.7","","","test","leftarrow","1","1","FALSE","FALSE",""
"null","<div style=""font-size:60px;""> </div>","null","html-keyboard-response","101","153531","0.0-32.0-6.7","","","fixation_4","","","","","",""
"541","arrows.png","37","image-keyboard-response","102","154073","0.0-32.0-7.7","","","test","leftarrow","1","1","FALSE","FALSE","true"
"null","<p style=""color: green; font-size:300%;"">correct: $7.50</p>","null","html-keyboard-response","103","155325","0.0-32.0-8.7","","","","","","","","",""
"null","<div style=""font-size:60px;""> </div>","null","html-keyboard-response","104","155878","0.0-32.0-0.8","","","fixation_1","","","","","",""
"null","","null","image-keyboard-response","105","155884","0.0-32.0-1.8","","","test","leftarrow","1","1","FALSE","FALSE",""
"null","<div style=""font-size:60px;""> </div>","null","html-keyboard-response","106","156186","0.0-32.0-2.8","","","fixation_2","","","","","",""
"null","img_3.bmp","null","image-keyboard-response","107","157188","0.0-32.0-3.8","","","img_on","","","","","",""
"null","<div style=""font-size:60px;""> </div>","null","html-keyboard-response","108","157490","0.0-32.0-4.8","","","fixation_3","","","","","",""
"null","","null","html-keyboard-response","109","157496","0.0-32.0-5.8","","","test","leftarrow","1","1","FALSE","FALSE",""
"null","<div style=""font-size:60px;""> </div>","null","html-keyboard-response","110","157799","0.0-32.0-6.8","","","fixation_4","","","","","",""
"1138.199999988079","arrows.png","39","image-keyboard-response","111","158938","0.0-32.0-7.8","","","test","leftarrow","1","1","FALSE","FALSE","false"
"null","<p style=""color: red; font-size:300%;"">incorrect: $0</p>","null","html-keyboard-response","112","160191","0.0-32.0-8.8","","","","","","","","",""
"null","<div style=""font-size:60px;""> </div>","null","html-keyboard-response","113","161243","0.0-32.0-0.9","","","fixation_1","","","","","",""
"null","","null","image-keyboard-response","114","161249","0.0-32.0-1.9","","","test","downarrow","1","1","FALSE","FALSE",""
"null","<div style=""font-size:60px;""> </div>","null","html-keyboard-response","115","161551","0.0-32.0-2.9","","","fixation_2","","","","","",""
"null","img_2.bmp","null","image-keyboard-response","116","162553","0.0-32.0-3.9","","","img_on","","","","","",""
"null","<div style=""font-size:60px;""> </div>","null","html-keyboard-response","117","162854","0.0-32.0-4.9","","","fixation_3","","","","","",""
"null","","null","html-keyboard-response","118","162859","0.0-32.0-5.9","","","test","downarrow","1","1","FALSE","FALSE",""
"null","<div style=""font-size:60px;""> </div>","null","html-keyboard-response","119","163160","0.0-32.0-6.9","","","fixation_4","","","","","",""
"249","arrows.png","39","image-keyboard-response","120","163410","0.0-32.0-7.9","","","test","downarrow","1","1","FALSE","FALSE","false"
"null","<p style=""color: red; font-size:300%;"">incorrect: $0</p>","null","html-keyboard-response","121","164662","0.0-32.0-8.9","","","","","","","","",""
"null","<div style=""font-size:60px;""> </div>","null","html-keyboard-response","122","166215","0.0-32.0-0.10","","","fixation_1","","","","","",""
"null","","null","image-keyboard-response","123","166222","0.0-32.0-1.10","","","test","rightarrow","0","1","FALSE","FALSE",""
"null","<div style=""font-size:60px;""> </div>","null","html-keyboard-response","124","166523","0.0-32.0-2.10","","","fixation_2","","","","","",""
"null","img_1.bmp","null","image-keyboard-response","125","167524","0.0-32.0-3.10","","","img_on","","","","","",""
"null","<div style=""font-size:60px;""> </div>","null","html-keyboard-response","126","167826","0.0-32.0-4.10","","","fixation_3","","","","","",""
"null","","null","html-keyboard-response","127","167832","0.0-32.0-5.10","","","test","rightarrow","0","1","FALSE","FALSE",""
"null","<div style=""font-size:60px;""> </div>","null","html-keyboard-response","128","168134","0.0-32.0-6.10","","","fixation_4","","","","","",""
"170.5999999642372","arrows.png","39","image-keyboard-response","129","168305","0.0-32.0-7.10","","","test","rightarrow","0","1","FALSE","FALSE","true"
"null","<p style=""color: green; font-size:300%;"">correct: $2.50</p>","null","html-keyboard-response","130","169558","0.0-32.0-8.10","","","","","","","","",""
"null","<div style=""font-size:60px;""> </div>","null","html-keyboard-response","131","170610","0.0-32.0-0.11","","","fixation_1","","","","","",""
"null","","null","image-keyboard-response","132","170616","0.0-32.0-1.11","","","test","uparrow","0","1","FALSE","FALSE",""
"null","<div style=""font-size:60px;""> </div>","null","html-keyboard-response","133","170917","0.0-32.0-2.11","","","fixation_2","","","","","",""
"null","img_4.bmp","null","image-keyboard-response","134","171919","0.0-32.0-3.11","","","img_on","","","","","",""
"null","<div style=""font-size:60px;""> </div>","null","html-keyboard-response","135","172221","0.0-32.0-4.11","","","fixation_3","","","","","",""
"null","","null","html-keyboard-response","136","172227","0.0-32.0-5.11","","","test","uparrow","0","1","FALSE","FALSE",""
"null","<div style=""font-size:60px;""> </div>","null","html-keyboard-response","137","172528","0.0-32.0-6.11","","","fixation_4","","","","","",""
"483.60000002384186","arrows.png","38","image-keyboard-response","138","173012","0.0-32.0-7.11","","","test","uparrow","0","1","FALSE","FALSE","true"
"null","<p style=""color: green; font-size:300%;"">correct: $2.50</p>","null","html-keyboard-response","139","174264","0.0-32.0-8.11","","","","","","","","",""
"null","<div style=""font-size:60px;""> </div>","null","html-keyboard-response","140","175817","0.0-32.0-0.12","","","fixation_1","","","","","",""
"null","","null","image-keyboard-response","141","175823","0.0-32.0-1.12","","","test","leftarrow","1","1","FALSE","FALSE",""
"null","<div style=""font-size:60px;""> </div>","null","html-keyboard-response","142","176125","0.0-32.0-2.12","","","fixation_2","","","","","",""
"null","img_3.bmp","null","image-keyboard-response","143","177127","0.0-32.0-3.12","","","img_on","","","","","",""
"null","<div style=""font-size:60px;""> </div>","null","html-keyboard-response","144","177428","0.0-32.0-4.12","","","fixation_3","","","","","",""
"null","","null","html-keyboard-response","145","177433","0.0-32.0-5.12","","","test","leftarrow","1","1","FALSE","FALSE",""
"null","<div style=""font-size:60px;""> </div>","null","html-keyboard-response","146","177734","0.0-32.0-6.12","","","fixation_4","","","","","",""
"294.39999997615814","arrows.png","37","image-keyboard-response","147","178030","0.0-32.0-7.12","","","test","leftarrow","1","1","FALSE","FALSE","true"
"null","<p style=""color: green; font-size:300%;"">correct: $7.50</p>","null","html-keyboard-response","148","179297","0.0-32.0-8.12","","","","","","","","",""
"null","<div style=""font-size:60px;""> </div>","null","html-keyboard-response","149","179849","0.0-32.0-0.13","","","fixation_1","","","","","",""
"null","switch_cue.png","null","image-keyboard-response","150","180851","0.0-32.0-1.13","","","test","rightarrow","0","1","TRUE","TRUE",""
"null","<div style=""font-size:60px;""> </div>","null","html-keyboard-response","151","181153","0.0-32.0-2.13","","","fixation_2","","","","","",""
"null","img_1.bmp","null","image-keyboard-response","152","182154","0.0-32.0-3.13","","","img_on","","","","","",""
"null","<div style=""font-size:60px;""> </div>","null","html-keyboard-response","153","182455","0.0-32.0-4.13","","","fixation_3","","","","","",""
"null","<img src=""CC1.png"" width=200 height=200/>","null","html-keyboard-response","154","183457","0.0-32.0-5.13","","","test","rightarrow","0","1","TRUE","TRUE",""
"null","<div style=""font-size:60px;""> </div>","null","html-keyboard-response","155","183759","0.0-32.0-6.13","","","fixation_4","","","","","",""
"519.1999999880791","arrows.png","39","image-keyboard-response","156","184279","0.0-32.0-7.13","","","test","rightarrow","0","1","TRUE","TRUE","true"
"null","<p style=""color: green; font-size:300%;"">correct: $2.50</p>","null","html-keyboard-response","157","185534","0.0-32.0-8.13","","","","","","","","",""
"null","<div style=""font-size:60px;""> </div>","null","html-keyboard-response","158","186586","0.0-32.0-0.14","","","fixation_1","","","","","",""
"null","switch_cue.png","null","image-keyboard-response","159","187588","0.0-32.0-1.14","","","test","downarrow","1","1","TRUE","TRUE",""
"null","<div style=""font-size:60px;""> </div>","null","html-keyboard-response","160","187890","0.0-32.0-2.14","","","fixation_2","","","","","",""
"null","img_2.bmp","null","image-keyboard-response","161","188892","0.0-32.0-3.14","","","img_on","","","","","",""
"null","<div style=""font-size:60px;""> </div>","null","html-keyboard-response","162","189193","0.0-32.0-4.14","","","fixation_3","","","","","",""
"null","<img src=""CC1.png"" width=200 height=200/>","null","html-keyboard-response","163","190195","0.0-32.0-5.14","","","test","downarrow","1","1","TRUE","TRUE",""
"null","<div style=""font-size:60px;""> </div>","null","html-keyboard-response","164","190497","0.0-32.0-6.14","","","fixation_4","","","","","",""
"113.60000002384186","arrows.png","40","image-keyboard-response","165","190612","0.0-32.0-7.14","","","test","downarrow","1","1","TRUE","TRUE","true"
"null","<p style=""color: green; font-size:300%;"">correct: $7.50</p>","null","html-keyboard-response","166","191864","0.0-32.0-8.14","","","","","","","","",""
"null","<div style=""font-size:60px;""> </div>","null","html-keyboard-response","167","192416","0.0-32.0-0.15","","","fixation_1","","","","","",""
"null","switch_cue.png","null","image-keyboard-response","168","193418","0.0-32.0-1.15","","","test","uparrow","0","1","TRUE","TRUE",""
"null","<div style=""font-size:60px;""> </div>","null","html-keyboard-response","169","193720","0.0-32.0-2.15","","","fixation_2","","","","","",""
"null","img_4.bmp","null","image-keyboard-response","170","194722","0.0-32.0-3.15","","","img_on","","","","","",""
"null","<div style=""font-size:60px;""> </div>","null","html-keyboard-response","171","195024","0.0-32.0-4.15","","","fixation_3","","","","","",""
"null","<img src=""CC1.png"" width=200 height=200/>","null","html-keyboard-response","172","196025","0.0-32.0-5.15","","","test","uparrow","0","1","TRUE","TRUE",""
"null","<div style=""font-size:60px;""> </div>","null","html-keyboard-response","173","196326","0.0-32.0-6.15","","","fixation_4","","","","","",""
"491.89999997615814","arrows.png","38","image-keyboard-response","174","196819","0.0-32.0-7.15","","","test","uparrow","0","1","TRUE","TRUE","true"
"null","<p style=""color: green; font-size:300%;"">correct: $2.50</p>","null","html-keyboard-response","175","198070","0.0-32.0-8.15","","","","","","","","",""
"null","<div style=""font-size:60px;""> </div>","null","html-keyboard-response","176","198874","0.0-32.0-0.16","","","fixation_1","","","","","",""
"null","switch_cue.png","null","image-keyboard-response","177","199875","0.0-32.0-1.16","","","test","uparrow","0","1","TRUE","TRUE",""
"null","<div style=""font-size:60px;""> </div>","null","html-keyboard-response","178","200178","0.0-32.0-2.16","","","fixation_2","","","","","",""
"null","img_4.bmp","null","image-keyboard-response","179","201179","0.0-32.0-3.16","","","img_on","","","","","",""
"null","<div style=""font-size:60px;""> </div>","null","html-keyboard-response","180","201480","0.0-32.0-4.16","","","fixation_3","","","","","",""
"null","<img src=""CC1.png"" width=200 height=200/>","null","html-keyboard-response","181","202482","0.0-32.0-5.16","","","test","uparrow","0","1","TRUE","TRUE",""
"null","<div style=""font-size:60px;""> </div>","null","html-keyboard-response","182","202783","0.0-32.0-6.16","","","fixation_4","","","","","",""
"216","arrows.png","38","image-keyboard-response","183","203000","0.0-32.0-7.16","","","test","uparrow","0","1","TRUE","TRUE","true"
"null","<p style=""color: green; font-size:300%;"">correct: $2.50</p>","null","html-keyboard-response","184","204252","0.0-32.0-8.16","","","","","","","","",""
"null","<div style=""font-size:60px;""> </div>","null","html-keyboard-response","185","205319","0.0-32.0-0.17","","","fixation_1","","","","","",""
"null","switch_cue.png","null","image-keyboard-response","186","206322","0.0-32.0-1.17","","","test","downarrow","1","1","TRUE","TRUE",""
"null","<div style=""font-size:60px;""> </div>","null","html-keyboard-response","187","206624","0.0-32.0-2.17","","","fixation_2","","","","","",""
"null","img_2.bmp","null","image-keyboard-response","188","207625","0.0-32.0-3.17","","","img_on","","","","","",""
"null","<div style=""font-size:60px;""> </div>","null","html-keyboard-response","189","207926","0.0-32.0-4.17","","","fixation_3","","","","","",""
"null","<img src=""CC1.png"" width=200 height=200/>","null","html-keyboard-response","190","208929","0.0-32.0-5.17","","","test","downarrow","1","1","TRUE","TRUE",""
"null","<div style=""font-size:60px;""> </div>","null","html-keyboard-response","191","209231","0.0-32.0-6.17","","","fixation_4","","","","","",""
"322.7999999523163","arrows.png","39","image-keyboard-response","192","209555","0.0-32.0-7.17","","","test","downarrow","1","1","TRUE","TRUE","false"
"null","<p style=""color: red; font-size:300%;"">incorrect: $0</p>","null","html-keyboard-response","193","210807","0.0-32.0-8.17","","","","","","","","",""
"null","<div style=""font-size:60px;""> </div>","null","html-keyboard-response","194","211859","0.0-32.0-0.18","","","fixation_1","","","","","",""
"null","switch_cue.png","null","image-keyboard-response","195","212861","0.0-32.0-1.18","","","test","rightarrow","0","1","TRUE","TRUE",""
"null","<div style=""font-size:60px;""> </div>","null","html-keyboard-response","196","213163","0.0-32.0-2.18","","","fixation_2","","","","","",""
"null","img_1.bmp","null","image-keyboard-response","197","214174","0.0-32.0-3.18","","","img_on","","","","","",""
"null","<div style=""font-size:60px;""> </div>","null","html-keyboard-response","198","214476","0.0-32.0-4.18","","","fixation_3","","","","","",""
"null","<img src=""CC1.png"" width=200 height=200/>","null","html-keyboard-response","199","215477","0.0-32.0-5.18","","","test","rightarrow","0","1","TRUE","TRUE",""
"null","<div style=""font-size:60px;""> </div>","null","html-keyboard-response","200","215779","0.0-32.0-6.18","","","fixation_4","","","","","",""
"110","arrows.png","39","image-keyboard-response","201","215890","0.0-32.0-7.18","","","test","rightarrow","0","1","TRUE","TRUE","true"
"null","<p style=""color: green; font-size:300%;"">correct: $2.50</p>","null","html-keyboard-response","202","217143","0.0-32.0-8.18","","","","","","","","",""
"null","<div style=""font-size:60px;""> </div>","null","html-keyboard-response","203","218195","0.0-32.0-0.19","","","fixation_1","","","","","",""
"null","switch_cue.png","null","image-keyboard-response","204","219197","0.0-32.0-1.19","","","test","leftarrow","1","1","TRUE","TRUE",""
"null","<div style=""font-size:60px;""> </div>","null","html-keyboard-response","205","219498","0.0-32.0-2.19","","","fixation_2","","","","","",""
"null","img_3.bmp","null","image-keyboard-response","206","220499","0.0-32.0-3.19","","","img_on","","","","","",""
"null","<div style=""font-size:60px;""> </div>","null","html-keyboard-response","207","220801","0.0-32.0-4.19","","","fixation_3","","","","","",""
"null","<img src=""CC1.png"" width=200 height=200/>","null","html-keyboard-response","208","221802","0.0-32.0-5.19","","","test","leftarrow","1","1","TRUE","TRUE",""
"null","<div style=""font-size:60px;""> </div>","null","html-keyboard-response","209","222104","0.0-32.0-6.19","","","fixation_4","","","","","",""
"289.9000000357628","arrows.png","37","image-keyboard-response","210","222395","0.0-32.0-7.19","","","test","leftarrow","1","1","TRUE","TRUE","true"
"null","<p style=""color: green; font-size:300%;"">correct: $7.50</p>","null","html-keyboard-response","211","223649","0.0-32.0-8.19","","","","","","","","",""
"null","<div style=""font-size:60px;""> </div>","null","html-keyboard-response","212","225200","0.0-32.0-0.20","","","fixation_1","","","","","",""
"null","switch_cue.png","null","image-keyboard-response","213","226202","0.0-32.0-1.20","","","test","downarrow","0","2","TRUE","TRUE",""
"null","<div style=""font-size:60px;""> </div>","null","html-keyboard-response","214","226504","0.0-32.0-2.20","","","fixation_2","","","","","",""
"null","img_3.bmp","null","image-keyboard-response","215","227506","0.0-32.0-3.20","","","img_on","","","","","",""
"null","<div style=""font-size:60px;""> </div>","null","html-keyboard-response","216","227808","0.0-32.0-4.20","","","fixation_3","","","","","",""
"null","<img src=""CC2.png"" width=200 height=200/>","null","html-keyboard-response","217","228810","0.0-32.0-5.20","","","test","downarrow","0","2","TRUE","TRUE",""
"null","<div style=""font-size:60px;""> </div>","null","html-keyboard-response","218","229111","0.0-32.0-6.20","","","fixation_4","","","","","",""
"235.60000002384186","arrows.png","39","image-keyboard-response","219","229347","0.0-32.0-7.20","","","test","downarrow","0","2","TRUE","TRUE","false"
"null","<p style=""color: red; font-size:300%;"">incorrect: $0</p>","null","html-keyboard-response","220","230600","0.0-32.0-8.20","","","","","","","","",""
"null","<div style=""font-size:60px;""> </div>","null","html-keyboard-response","221","232157","0.0-32.0-0.21","","","fixation_1","","","","","",""
"null","","null","image-keyboard-response","222","232163","0.0-32.0-1.21","","","test","uparrow","1","2","TRUE","FALSE",""
"null","<div style=""font-size:60px;""> </div>","null","html-keyboard-response","223","232464","0.0-32.0-2.21","","","fixation_2","","","","","",""
"null","img_1.bmp","null","image-keyboard-response","224","233466","0.0-32.0-3.21","","","img_on","","","","","",""
"null","<div style=""font-size:60px;""> </div>","null","html-keyboard-response","225","233768","0.0-32.0-4.21","","","fixation_3","","","","","",""
"null","<img src=""CC2.png"" width=200 height=200/>","null","html-keyboard-response","226","234771","0.0-32.0-5.21","","","test","uparrow","1","2","TRUE","FALSE",""
"null","<div style=""font-size:60px;""> </div>","null","html-keyboard-response","227","235072","0.0-32.0-6.21","","","fixation_4","","","","","",""
"236.70000004768372","arrows.png","38","image-keyboard-response","228","235309","0.0-32.0-7.21","","","test","uparrow","1","2","TRUE","FALSE","true"
"null","<p style=""color: green; font-size:300%;"">correct: $7.50</p>","null","html-keyboard-response","229","236562","0.0-32.0-8.21","","","","","","","","",""
"null","<div style=""font-size:60px;""> </div>","null","html-keyboard-response","230","237864","0.0-32.0-0.22","","","fixation_1","","","","","",""
"null","","null","image-keyboard-response","231","237870","0.0-32.0-1.22","","","test","rightarrow","1","2","TRUE","FALSE",""
"null","<div style=""font-size:60px;""> </div>","null","html-keyboard-response","232","238173","0.0-32.0-2.22","","","fixation_2","","","","","",""
"null","img_2.bmp","null","image-keyboard-response","233","239184","0.0-32.0-3.22","","","img_on","","","","","",""
"null","<div style=""font-size:60px;""> </div>","null","html-keyboard-response","234","239485","0.0-32.0-4.22","","","fixation_3","","","","","",""
"null","<img src=""CC2.png"" width=200 height=200/>","null","html-keyboard-response","235","240488","0.0-32.0-5.22","","","test","rightarrow","1","2","TRUE","FALSE",""
"null","<div style=""font-size:60px;""> </div>","null","html-keyboard-response","236","240789","0.0-32.0-6.22","","","fixation_4","","","","","",""
"236.30000001192093","arrows.png","37","image-keyboard-response","237","241027","0.0-32.0-7.22","","","test","rightarrow","1","2","TRUE","FALSE","false"
"null","<p style=""color: red; font-size:300%;"">incorrect: $0</p>","null","html-keyboard-response","238","242278","0.0-32.0-8.22","","","","","","","","",""
"null","<div style=""font-size:60px;""> </div>","null","html-keyboard-response","239","242839","0.0-32.0-0.23","","","fixation_1","","","","","",""
"null","","null","image-keyboard-response","240","242845","0.0-32.0-1.23","","","test","leftarrow","0","2","TRUE","FALSE",""
"null","<div style=""font-size:60px;""> </div>","null","html-keyboard-response","241","243147","0.0-32.0-2.23","","","fixation_2","","","","","",""
"null","img_4.bmp","null","image-keyboard-response","242","244149","0.0-32.0-3.23","","","img_on","","","","","",""
"null","<div style=""font-size:60px;""> </div>","null","html-keyboard-response","243","244451","0.0-32.0-4.23","","","fixation_3","","","","","",""
"null","<img src=""CC2.png"" width=200 height=200/>","null","html-keyboard-response","244","245453","0.0-32.0-5.23","","","test","leftarrow","0","2","TRUE","FALSE",""
"null","<div style=""font-size:60px;""> </div>","null","html-keyboard-response","245","245754","0.0-32.0-6.23","","","fixation_4","","","","","",""
"234.5","arrows.png","40","image-keyboard-response","246","245990","0.0-32.0-7.23","","","test","leftarrow","0","2","TRUE","FALSE","false"
"null","<p style=""color: red; font-size:300%;"">incorrect: $0</p>","null","html-keyboard-response","247","247241","0.0-32.0-8.23","","","","","","","","",""
"null","<div style=""font-size:60px;""> </div>","null","html-keyboard-response","248","248793","0.0-32.0-0.24","","","fixation_1","","","","","",""
"null","","null","image-keyboard-response","249","248798","0.0-32.0-1.24","","","test","leftarrow","0","2","FALSE","FALSE",""
"null","<div style=""font-size:60px;""> </div>","null","html-keyboard-response","250","249099","0.0-32.0-2.24","","","fixation_2","","","","","",""
"null","img_4.bmp","null","image-keyboard-response","251","250100","0.0-32.0-3.24","","","img_on","","","","","",""
"null","<div style=""font-size:60px;""> </div>","null","html-keyboard-response","252","250402","0.0-32.0-4.24","","","fixation_3","","","","","",""
"null","","null","html-keyboard-response","253","250408","0.0-32.0-5.24","","","test","leftarrow","0","2","FALSE","FALSE",""
"null","<div style=""font-size:60px;""> </div>","null","html-keyboard-response","254","250709","0.0-32.0-6.24","","","fixation_4","","","","","",""
"1248.9000000357628","arrows.png","37","image-keyboard-response","255","251959","0.0-32.0-7.24","","","test","leftarrow","0","2","FALSE","FALSE","true"
"null","<p style=""color: green; font-size:300%;"">correct: $2.50</p>","null","html-keyboard-response","256","253211","0.0-32.0-8.24","","","","","","","","",""
"null","<div style=""font-size:60px;""> </div>","null","html-keyboard-response","257","254768","0.0-32.0-0.25","","","fixation_1","","","","","",""
"null","","null","image-keyboard-response","258","254775","0.0-32.0-1.25","","","test","downarrow","0","2","FALSE","FALSE",""
"null","<div style=""font-size:60px;""> </div>","null","html-keyboard-response","259","255076","0.0-32.0-2.25","","","fixation_2","","","","","",""
"null","img_3.bmp","null","image-keyboard-response","260","256077","0.0-32.0-3.25","","","img_on","","","","","",""
"null","<div style=""font-size:60px;""> </div>","null","html-keyboard-response","261","256378","0.0-32.0-4.25","","","fixation_3","","","","","",""
"null","","null","html-keyboard-response","262","256383","0.0-32.0-5.25","","","test","downarrow","0","2","FALSE","FALSE",""
"null","<div style=""font-size:60px;""> </div>","null","html-keyboard-response","263","256685","0.0-32.0-6.25","","","fixation_4","","","","","",""
"706.1000000238419","arrows.png","39","image-keyboard-response","264","257392","0.0-32.0-7.25","","","test","downarrow","0","2","FALSE","FALSE","false"
"null","<p style=""color: red; font-size:300%;"">incorrect: $0</p>","null","html-keyboard-response","265","258656","0.0-32.0-8.25","","","","","","","","",""
"null","<div style=""font-size:60px;""> </div>","null","html-keyboard-response","266","259958","0.0-32.0-0.26","","","fixation_1","","","","","",""
"null","","null","image-keyboard-response","267","259965","0.0-32.0-1.26","","","test","rightarrow","1","2","FALSE","FALSE",""
"null","<div style=""font-size:60px;""> </div>","null","html-keyboard-response","268","260266","0.0-32.0-2.26","","","fixation_2","","","","","",""
"null","img_2.bmp","null","image-keyboard-response","269","261268","0.0-32.0-3.26","","","img_on","","","","","",""
"null","<div style=""font-size:60px;""> </div>","null","html-keyboard-response","270","261570","0.0-32.0-4.26","","","fixation_3","","","","","",""
"null","","null","html-keyboard-response","271","261576","0.0-32.0-5.26","","","test","rightarrow","1","2","FALSE","FALSE",""
"null","<div style=""font-size:60px;""> </div>","null","html-keyboard-response","272","261877","0.0-32.0-6.26","","","fixation_4","","","","","",""
"262","arrows.png","38","image-keyboard-response","273","262141","0.0-32.0-7.26","","","test","rightarrow","1","2","FALSE","FALSE","false"
"null","<p style=""color: red; font-size:300%;"">incorrect: $0</p>","null","html-keyboard-response","274","263393","0.0-32.0-8.26","","","","","","","","",""
"null","<div style=""font-size:60px;""> </div>","null","html-keyboard-response","275","264195","0.0-32.0-0.27","","","fixation_1","","","","","",""
"null","","null","image-keyboard-response","276","264201","0.0-32.0-1.27","","","test","uparrow","1","2","FALSE","FALSE",""
"null","<div style=""font-size:60px;""> </div>","null","html-keyboard-response","277","264502","0.0-32.0-2.27","","","fixation_2","","","","","",""
"null","img_1.bmp","null","image-keyboard-response","278","265503","0.0-32.0-3.27","","","img_on","","","","","",""
"null","<div style=""font-size:60px;""> </div>","null","html-keyboard-response","279","265804","0.0-32.0-4.27","","","fixation_3","","","","","",""
"null","","null","html-keyboard-response","280","265810","0.0-32.0-5.27","","","test","uparrow","1","2","FALSE","FALSE",""
"null","<div style=""font-size:60px;""> </div>","null","html-keyboard-response","281","266112","0.0-32.0-6.27","","","fixation_4","","","","","",""
"879.3999999761581","arrows.png","39","image-keyboard-response","282","266993","0.0-32.0-7.27","","","test","uparrow","1","2","FALSE","FALSE","false"
"null","<p style=""color: red; font-size:300%;"">incorrect: $0</p>","null","html-keyboard-response","283","268245","0.0-32.0-8.27","","","","","","","","",""
"null","<div style=""font-size:60px;""> </div>","null","html-keyboard-response","284","269547","0.0-32.0-0.28","","","fixation_1","","","","","",""
"null","","null","image-keyboard-response","285","269552","0.0-32.0-1.28","","","test","rightarrow","1","2","FALSE","FALSE",""
"null","<div style=""font-size:60px;""> </div>","null","html-keyboard-response","286","269853","0.0-32.0-2.28","","","fixation_2","","","","","",""
"null","img_2.bmp","null","image-keyboard-response","287","270865","0.0-32.0-3.28","","","img_on","","","","","",""
"null","<div style=""font-size:60px;""> </div>","null","html-keyboard-response","288","271166","0.0-32.0-4.28","","","fixation_3","","","","","",""
"null","","null","html-keyboard-response","289","271172","0.0-32.0-5.28","","","test","rightarrow","1","2","FALSE","FALSE",""
"null","<div style=""font-size:60px;""> </div>","null","html-keyboard-response","290","271474","0.0-32.0-6.28","","","fixation_4","","","","","",""
"294.5","arrows.png","37","image-keyboard-response","291","271769","0.0-32.0-7.28","","","test","rightarrow","1","2","FALSE","FALSE","false"
"null","<p style=""color: red; font-size:300%;"">incorrect: $0</p>","null","html-keyboard-response","292","273021","0.0-32.0-8.28","","","","","","","","",""
"null","<div style=""font-size:60px;""> </div>","null","html-keyboard-response","293","273573","0.0-32.0-0.29","","","fixation_1","","","","","",""
"null","","null","image-keyboard-response","294","273578","0.0-32.0-1.29","","","test","leftarrow","0","2","FALSE","FALSE",""
"null","<div style=""font-size:60px;""> </div>","null","html-keyboard-response","295","273879","0.0-32.0-2.29","","","fixation_2","","","","","",""
"null","img_4.bmp","null","image-keyboard-response","296","274885","0.0-32.0-3.29","","","img_on","","","","","",""
"null","<div style=""font-size:60px;""> </div>","null","html-keyboard-response","297","275187","0.0-32.0-4.29","","","fixation_3","","","","","",""
"null","","null","html-keyboard-response","298","275193","0.0-32.0-5.29","","","test","leftarrow","0","2","FALSE","FALSE",""
"null","<div style=""font-size:60px;""> </div>","null","html-keyboard-response","299","275496","0.0-32.0-6.29","","","fixation_4","","","","","",""
"366.4000000357628","arrows.png","37","image-keyboard-response","300","275863","0.0-32.0-7.29","","","test","leftarrow","0","2","FALSE","FALSE","true"
"null","<p style=""color: green; font-size:300%;"">correct: $2.50</p>","null","html-keyboard-response","301","277128","0.0-32.0-8.29","","","","","","","","",""
"null","<div style=""font-size:60px;""> </div>","null","html-keyboard-response","302","277680","0.0-32.0-0.30","","","fixation_1","","","","","",""
"null","","null","image-keyboard-response","303","277685","0.0-32.0-1.30","","","test","downarrow","0","2","FALSE","FALSE",""
"null","<div style=""font-size:60px;""> </div>","null","html-keyboard-response","304","277987","0.0-32.0-2.30","","","fixation_2","","","","","",""
"null","img_3.bmp","null","image-keyboard-response","305","278988","0.0-32.0-3.30","","","img_on","","","","","",""
"null","<div style=""font-size:60px;""> </div>","null","html-keyboard-response","306","279290","0.0-32.0-4.30","","","fixation_3","","","","","",""
"null","","null","html-keyboard-response","307","279295","0.0-32.0-5.30","","","test","downarrow","0","2","FALSE","FALSE",""
"null","<div style=""font-size:60px;""> </div>","null","html-keyboard-response","308","279596","0.0-32.0-6.30","","","fixation_4","","","","","",""
"420.10000002384186","arrows.png","38","image-keyboard-response","309","280017","0.0-32.0-7.30","","","test","downarrow","0","2","FALSE","FALSE","false"
"null","<p style=""color: red; font-size:300%;"">incorrect: $0</p>","null","html-keyboard-response","310","281269","0.0-32.0-8.30","","","","","","","","",""
"null","<div style=""font-size:60px;""> </div>","null","html-keyboard-response","311","282072","0.0-32.0-0.31","","","fixation_1","","","","","",""
"null","","null","image-keyboard-response","312","282078","0.0-32.0-1.31","","","test","uparrow","1","2","FALSE","FALSE",""
"null","<div style=""font-size:60px;""> </div>","null","html-keyboard-response","313","282379","0.0-32.0-2.31","","","fixation_2","","","","","",""
"null","img_1.bmp","null","image-keyboard-response","314","283381","0.0-32.0-3.31","","","img_on","","","","","",""
"null","<div style=""font-size:60px;""> </div>","null","html-keyboard-response","315","283682","0.0-32.0-4.31","","","fixation_3","","","","","",""
"null","","null","html-keyboard-response","316","283688","0.0-32.0-5.31","","","test","uparrow","1","2","FALSE","FALSE",""
"null","<div style=""font-size:60px;""> </div>","null","html-keyboard-response","317","283989","0.0-32.0-6.31","","","fixation_4","","","","","",""
"321.5","arrows.png","38","image-keyboard-response","318","284312","0.0-32.0-7.31","","","test","uparrow","1","2","FALSE","FALSE","true"
"null","<p style=""color: green; font-size:300%;"">correct: $7.50</p>","null","html-keyboard-response","319","285565","0.0-32.0-8.31","","","","","","","","",""
"null","<div style=""font-size:60px;""> </div>","null","html-keyboard-response","320","286367","0.0-32.0-0.32","","","fixation_1","","","","","",""
"null","","null","image-keyboard-response","321","286373","0.0-32.0-1.32","","","test","rightarrow","1","2","FALSE","FALSE",""
"null","<div style=""font-size:60px;""> </div>","null","html-keyboard-response","322","286675","0.0-32.0-2.32","","","fixation_2","","","","","",""
"null","img_2.bmp","null","image-keyboard-response","323","287676","0.0-32.0-3.32","","","img_on","","","","","",""
"null","<div style=""font-size:60px;""> </div>","null","html-keyboard-response","324","287977","0.0-32.0-4.32","","","fixation_3","","","","","",""
"null","","null","html-keyboard-response","325","287982","0.0-32.0-5.32","","","test","rightarrow","1","2","FALSE","FALSE",""
"null","<div style=""font-size:60px;""> </div>","null","html-keyboard-response","326","288283","0.0-32.0-6.32","","","fixation_4","","","","","",""
"263.30000001192093","arrows.png","39","image-keyboard-response","327","288548","0.0-32.0-7.32","","","test","rightarrow","1","2","FALSE","FALSE","true"
"null","<p style=""color: green; font-size:300%;"">correct: $7.50</p>","null","html-keyboard-response","328","289800","0.0-32.0-8.32","","","","","","","","",""
"null","<div style=""font-size:60px;""> </div>","null","html-keyboard-response","329","290601","0.0-32.0-0.33","","","fixation_1","","","","","",""
"null","","null","image-keyboard-response","330","290607","0.0-32.0-1.33","","","test","uparrow","1","2","FALSE","FALSE",""
"null","<div style=""font-size:60px;""> </div>","null","html-keyboard-response","331","290909","0.0-32.0-2.33","","","fixation_2","","","","","",""
"null","img_1.bmp","null","image-keyboard-response","332","291915","0.0-32.0-3.33","","","img_on","","","","","",""
"null","<div style=""font-size:60px;""> </div>","null","html-keyboard-response","333","292216","0.0-32.0-4.33","","","fixation_3","","","","","",""
"null","","null","html-keyboard-response","334","292222","0.0-32.0-5.33","","","test","uparrow","1","2","FALSE","FALSE",""
"null","<div style=""font-size:60px;""> </div>","null","html-keyboard-response","335","292524","0.0-32.0-6.33","","","fixation_4","","","","","",""
"252.19999998807907","arrows.png","40","image-keyboard-response","336","292777","0.0-32.0-7.33","","","test","uparrow","1","2","FALSE","FALSE","false"
"null","<p style=""color: red; font-size:300%;"">incorrect: $0</p>","null","html-keyboard-response","337","294030","0.0-32.0-8.33","","","","","","","","",""
"null","<div style=""font-size:60px;""> </div>","null","html-keyboard-response","338","295082","0.0-32.0-0.34","","","fixation_1","","","","","",""
"null","","null","image-keyboard-response","339","295087","0.0-32.0-1.34","","","test","downarrow","0","2","FALSE","FALSE",""
"null","<div style=""font-size:60px;""> </div>","null","html-keyboard-response","340","295389","0.0-32.0-2.34","","","fixation_2","","","","","",""
"null","img_3.bmp","null","image-keyboard-response","341","296391","0.0-32.0-3.34","","","img_on","","","","","",""
"null","<div style=""font-size:60px;""> </div>","null","html-keyboard-response","342","296693","0.0-32.0-4.34","","","fixation_3","","","","","",""
"null","","null","html-keyboard-response","343","296698","0.0-32.0-5.34","","","test","downarrow","0","2","FALSE","FALSE",""
"null","<div style=""font-size:60px;""> </div>","null","html-keyboard-response","344","297000","0.0-32.0-6.34","","","fixation_4","","","","","",""
"482.80000001192093","arrows.png","38","image-keyboard-response","345","297484","0.0-32.0-7.34","","","test","downarrow","0","2","FALSE","FALSE","false"
"null","<p style=""color: red; font-size:300%;"">incorrect: $0</p>","null","html-keyboard-response","346","298736","0.0-32.0-8.34","","","","","","","","",""
"null","<div style=""font-size:60px;""> </div>","null","html-keyboard-response","347","300288","0.0-32.0-0.35","","","fixation_1","","","","","",""
"null","","null","image-keyboard-response","348","300295","0.0-32.0-1.35","","","test","leftarrow","0","2","FALSE","FALSE",""
"null","<div style=""font-size:60px;""> </div>","null","html-keyboard-response","349","300597","0.0-32.0-2.35","","","fixation_2","","","","","",""
"null","img_4.bmp","null","image-keyboard-response","350","301599","0.0-32.0-3.35","","","img_on","","","","","",""
"null","<div style=""font-size:60px;""> </div>","null","html-keyboard-response","351","301900","0.0-32.0-4.35","","","fixation_3","","","","","",""
"null","","null","html-keyboard-response","352","301905","0.0-32.0-5.35","","","test","leftarrow","0","2","FALSE","FALSE",""
"null","<div style=""font-size:60px;""> </div>","null","html-keyboard-response","353","302206","0.0-32.0-6.35","","","fixation_4","","","","","",""
"290.69999998807907","arrows.png","37","image-keyboard-response","354","302498","0.0-32.0-7.35","","","test","leftarrow","0","2","FALSE","FALSE","true"
"null","<p style=""color: green; font-size:300%;"">correct: $2.50</p>","null","html-keyboard-response","355","303750","0.0-32.0-8.35","","","","","","","","",""
"null","<div style=""font-size:60px;""> </div>","null","html-keyboard-response","356","305302","0.0-32.0-0.36","","","fixation_1","","","","","",""
"null","switch_cue.png","null","image-keyboard-response","357","306303","0.0-32.0-1.36","","","test","downarrow","0","2","TRUE","TRUE",""
"null","<div style=""font-size:60px;""> </div>","null","html-keyboard-response","358","306604","0.0-32.0-2.36","","","fixation_2","","","","","",""
"null","img_3.bmp","null","image-keyboard-response","359","307606","0.0-32.0-3.36","","","img_on","","","","","",""
"null","<div style=""font-size:60px;""> </div>","null","html-keyboard-response","360","307907","0.0-32.0-4.36","","","fixation_3","","","","","",""
"null","<img src=""CC2.png"" width=200 height=200/>","null","html-keyboard-response","361","308909","0.0-32.0-5.36","","","test","downarrow","0","2","TRUE","TRUE",""
"null","<div style=""font-size:60px;""> </div>","null","html-keyboard-response","362","309210","0.0-32.0-6.36","","","fixation_4","","","","","",""
"270.7000000476837","arrows.png","37","image-keyboard-response","363","309482","0.0-32.0-7.36","","","test","downarrow","0","2","TRUE","TRUE","false"
"null","<p style=""color: red; font-size:300%;"">incorrect: $0</p>","null","html-keyboard-response","364","310735","0.0-32.0-8.36","","","","","","","","",""
"null","<div style=""font-size:60px;""> </div>","null","html-keyboard-response","365","312038","0.0-32.0-0.37","","","fixation_1","","","","","",""
"null","switch_cue.png","null","image-keyboard-response","366","313040","0.0-32.0-1.37","","","test","uparrow","1","2","TRUE","TRUE",""
"null","<div style=""font-size:60px;""> </div>","null","html-keyboard-response","367","313341","0.0-32.0-2.37","","","fixation_2","","","","","",""
"null","img_1.bmp","null","image-keyboard-response","368","314342","0.0-32.0-3.37","","","img_on","","","","","",""
"null","<div style=""font-size:60px;""> </div>","null","html-keyboard-response","369","314644","0.0-32.0-4.37","","","fixation_3","","","","","",""
"null","<img src=""CC2.png"" width=200 height=200/>","null","html-keyboard-response","370","315653","0.0-32.0-5.37","","","test","uparrow","1","2","TRUE","TRUE",""
"null","<div style=""font-size:60px;""> </div>","null","html-keyboard-response","371","315954","0.0-32.0-6.37","","","fixation_4","","","","","",""
"117.20000004768372","arrows.png","39","image-keyboard-response","372","316072","0.0-32.0-7.37","","","test","uparrow","1","2","TRUE","TRUE","false"
"null","<p style=""color: red; font-size:300%;"">incorrect: $0</p>","null","html-keyboard-response","373","317324","0.0-32.0-8.37","","","","","","","","",""
"null","<div style=""font-size:60px;""> </div>","null","html-keyboard-response","374","318625","0.0-32.0-0.38","","","fixation_1","","","","","",""
"null","switch_cue.png","null","image-keyboard-response","375","319627","0.0-32.0-1.38","","","test","leftarrow","0","2","TRUE","TRUE",""
"null","<div style=""font-size:60px;""> </div>","null","html-keyboard-response","376","319928","0.0-32.0-2.38","","","fixation_2","","","","","",""
"null","img_4.bmp","null","image-keyboard-response","377","320929","0.0-32.0-3.38","","","img_on","","","","","",""
"null","<div style=""font-size:60px;""> </div>","null","html-keyboard-response","378","321231","0.0-32.0-4.38","","","fixation_3","","","","","",""
"null","<img src=""CC2.png"" width=200 height=200/>","null","html-keyboard-response","379","322244","0.0-32.0-5.38","","","test","leftarrow","0","2","TRUE","TRUE",""
"null","<div style=""font-size:60px;""> </div>","null","html-keyboard-response","380","322546","0.0-32.0-6.38","","","fixation_4","","","","","",""
"335.89999997615814","arrows.png","37","image-keyboard-response","381","322883","0.0-32.0-7.38","","","test","leftarrow","0","2","TRUE","TRUE","true"
"null","<p style=""color: green; font-size:300%;"">correct: $2.50</p>","null","html-keyboard-response","382","324135","0.0-32.0-8.38","","","","","","","","",""
"null","<div style=""font-size:60px;""> </div>","null","html-keyboard-response","383","324938","0.0-32.0-0.39","","","fixation_1","","","","","",""
"null","switch_cue.png","null","image-keyboard-response","384","325951","0.0-32.0-1.39","","","test","rightarrow","1","2","TRUE","TRUE",""
"null","<div style=""font-size:60px;""> </div>","null","html-keyboard-response","385","326253","0.0-32.0-2.39","","","fixation_2","","","","","",""
"null","img_2.bmp","null","image-keyboard-response","386","327255","0.0-32.0-3.39","","","img_on","","","","","",""
"null","<div style=""font-size:60px;""> </div>","null","html-keyboard-response","387","327556","0.0-32.0-4.39","","","fixation_3","","","","","",""
"null","<img src=""CC2.png"" width=200 height=200/>","null","html-keyboard-response","388","328557","0.0-32.0-5.39","","","test","rightarrow","1","2","TRUE","TRUE",""
"null","<div style=""font-size:60px;""> </div>","null","html-keyboard-response","389","328859","0.0-32.0-6.39","","","fixation_4","","","","","",""
"253","arrows.png","39","image-keyboard-response","390","329114","0.0-32.0-7.39","","","test","rightarrow","1","2","TRUE","TRUE","true"
"null","<p style=""color: green; font-size:300%;"">correct: $7.50</p>","null","html-keyboard-response","391","330366","0.0-32.0-8.39","","","","","","","","",""
"null","<div style=""font-size:60px;""> </div>","null","html-keyboard-response","392","331669","0.0-32.0-0.40","","","fixation_1","","","","","",""
"null","switch_cue.png","null","image-keyboard-response","393","332671","0.0-32.0-1.40","","","test","downarrow","1","1","TRUE","TRUE",""
"null","<div style=""font-size:60px;""> </div>","null","html-keyboard-response","394","332972","0.0-32.0-2.40","","","fixation_2","","","","","",""
"null","img_2.bmp","null","image-keyboard-response","395","333973","0.0-32.0-3.40","","","img_on","","","","","",""
"null","<div style=""font-size:60px;""> </div>","null","html-keyboard-response","396","334275","0.0-32.0-4.40","","","fixation_3","","","","","",""
"null","<img src=""CC1.png"" width=200 height=200/>","null","html-keyboard-response","397","335277","0.0-32.0-5.40","","","test","downarrow","1","1","TRUE","TRUE",""
"null","<div style=""font-size:60px;""> </div>","null","html-keyboard-response","398","335578","0.0-32.0-6.40","","","fixation_4","","","","","",""
"632.3999999761581","arrows.png","40","image-keyboard-response","399","336212","0.0-32.0-7.40","","","test","downarrow","1","1","TRUE","TRUE","true"
"null","<p style=""color: green; font-size:300%;"">correct: $7.50</p>","null","html-keyboard-response","400","337464","0.0-32.0-8.40","","","","","","","","",""
"null","<div style=""font-size:60px;""> </div>","null","html-keyboard-response","401","338767","0.0-32.0-0.41","","","fixation_1","","","","","",""
"null","","null","image-keyboard-response","402","338773","0.0-32.0-1.41","","","test","rightarrow","0","1","TRUE","FALSE",""
"null","<div style=""font-size:60px;""> </div>","null","html-keyboard-response","403","339074","0.0-32.0-2.41","","","fixation_2","","","","","",""
"null","img_1.bmp","null","image-keyboard-response","404","340080","0.0-32.0-3.41","","","img_on","","","","","",""
"null","<div style=""font-size:60px;""> </div>","null","html-keyboard-response","405","340381","0.0-32.0-4.41","","","fixation_3","","","","","",""
"null","<img src=""CC1.png"" width=200 height=200/>","null","html-keyboard-response","406","341383","0.0-32.0-5.41","","","test","rightarrow","0","1","TRUE","FALSE",""
"null","<div style=""font-size:60px;""> </div>","null","html-keyboard-response","407","341685","0.0-32.0-6.41","","","fixation_4","","","","","",""
"712.7000000476837","arrows.png","39","image-keyboard-response","408","342399","0.0-32.0-7.41","","","test","rightarrow","0","1","TRUE","FALSE","true"
"null","<p style=""color: green; font-size:300%;"">correct: $2.50</p>","null","html-keyboard-response","409","343651","0.0-32.0-8.41","","","","","","","","",""
"null","<div style=""font-size:60px;""> </div>","null","html-keyboard-response","410","344702","0.0-32.0-0.42","","","fixation_1","","","","","",""
"null","","null","image-keyboard-response","411","344708","0.0-32.0-1.42","","","test","leftarrow","1","1","TRUE","FALSE",""
"null","<div style=""font-size:60px;""> </div>","null","html-keyboard-response","412","345010","0.0-32.0-2.42","","","fixation_2","","","","","",""
"null","img_3.bmp","null","image-keyboard-response","413","346012","0.0-32.0-3.42","","","img_on","","","","","",""
"null","<div style=""font-size:60px;""> </div>","null","html-keyboard-response","414","346314","0.0-32.0-4.42","","","fixation_3","","","","","",""
"null","<img src=""CC1.png"" width=200 height=200/>","null","html-keyboard-response","415","347315","0.0-32.0-5.42","","","test","leftarrow","1","1","TRUE","FALSE",""
"null","<div style=""font-size:60px;""> </div>","null","html-keyboard-response","416","347616","0.0-32.0-6.42","","","fixation_4","","","","","",""
"257.4000000357628","arrows.png","37","image-keyboard-response","417","347875","0.0-32.0-7.42","","","test","leftarrow","1","1","TRUE","FALSE","true"
"null","<p style=""color: green; font-size:300%;"">correct: $7.50</p>","null","html-keyboard-response","418","349126","0.0-32.0-8.42","","","","","","","","",""
"null","<div style=""font-size:60px;""> </div>","null","html-keyboard-response","419","350677","0.0-32.0-0.43","","","fixation_1","","","","","",""
"null","","null","image-keyboard-response","420","350685","0.0-32.0-1.43","","","test","uparrow","0","1","TRUE","FALSE",""
"null","<div style=""font-size:60px;""> </div>","null","html-keyboard-response","421","350986","0.0-32.0-2.43","","","fixation_2","","","","","",""
"null","img_4.bmp","null","image-keyboard-response","422","351988","0.0-32.0-3.43","","","img_on","","","","","",""
"null","<div style=""font-size:60px;""> </div>","null","html-keyboard-response","423","352289","0.0-32.0-4.43","","","fixation_3","","","","","",""
"null","<img src=""CC1.png"" width=200 height=200/>","null","html-keyboard-response","424","353291","0.0-32.0-5.43","","","test","uparrow","0","1","TRUE","FALSE",""
"null","<div style=""font-size:60px;""> </div>","null","html-keyboard-response","425","353592","0.0-32.0-6.43","","","fixation_4","","","","","",""
"68.90000003576279","arrows.png","38","image-keyboard-response","426","353662","0.0-32.0-7.43","","","test","uparrow","0","1","TRUE","FALSE","true"
"null","<p style=""color: green; font-size:300%;"">correct: $2.50</p>","null","html-keyboard-response","427","354914","0.0-32.0-8.43","","","","","","","","",""
"null","<div style=""font-size:60px;""> </div>","null","html-keyboard-response","428","355466","0.0-32.0-0.44","","","fixation_1","","","","","",""
"null","","null","image-keyboard-response","429","355472","0.0-32.0-1.44","","","test","downarrow","1","1","FALSE","FALSE",""
"null","<div style=""font-size:60px;""> </div>","null","html-keyboard-response","430","355773","0.0-32.0-2.44","","","fixation_2","","","","","",""
"null","img_2.bmp","null","image-keyboard-response","431","356776","0.0-32.0-3.44","","","img_on","","","","","",""
"null","<div style=""font-size:60px;""> </div>","null","html-keyboard-response","432","357077","0.0-32.0-4.44","","","fixation_3","","","","","",""
"null","","null","html-keyboard-response","433","357083","0.0-32.0-5.44","","","test","downarrow","1","1","FALSE","FALSE",""
"null","<div style=""font-size:60px;""> </div>","null","html-keyboard-response","434","357385","0.0-32.0-6.44","","","fixation_4","","","","","",""
"785.6999999880791","arrows.png","40","image-keyboard-response","435","358172","0.0-32.0-7.44","","","test","downarrow","1","1","FALSE","FALSE","true"
"null","<p style=""color: green; font-size:300%;"">correct: $7.50</p>","null","html-keyboard-response","436","359424","0.0-32.0-8.44","","","","","","","","",""
"null","<div style=""font-size:60px;""> </div>","null","html-keyboard-response","437","360978","0.0-32.0-0.45","","","fixation_1","","","","","",""
"null","","null","image-keyboard-response","438","360984","0.0-32.0-1.45","","","test","leftarrow","1","1","FALSE","FALSE",""
"null","<div style=""font-size:60px;""> </div>","null","html-keyboard-response","439","361285","0.0-32.0-2.45","","","fixation_2","","","","","",""
"null","img_3.bmp","null","image-keyboard-response","440","362296","0.0-32.0-3.45","","","img_on","","","","","",""
"null","<div style=""font-size:60px;""> </div>","null","html-keyboard-response","441","362597","0.0-32.0-4.45","","","fixation_3","","","","","",""
"null","","null","html-keyboard-response","442","362602","0.0-32.0-5.45","","","test","leftarrow","1","1","FALSE","FALSE",""
"null","<div style=""font-size:60px;""> </div>","null","html-keyboard-response","443","362904","0.0-32.0-6.45","","","fixation_4","","","","","",""
"700.8000000119209","arrows.png","37","image-keyboard-response","444","363606","0.0-32.0-7.45","","","test","leftarrow","1","1","FALSE","FALSE","true"
"null","<p style=""color: green; font-size:300%;"">correct: $7.50</p>","null","html-keyboard-response","445","364859","0.0-32.0-8.45","","","","","","","","",""
"null","<div style=""font-size:60px;""> </div>","null","html-keyboard-response","446","365911","0.0-32.0-0.46","","","fixation_1","","","","","",""
"null","","null","image-keyboard-response","447","365917","0.0-32.0-1.46","","","test","uparrow","0","1","FALSE","FALSE",""
"null","<div style=""font-size:60px;""> </div>","null","html-keyboard-response","448","366219","0.0-32.0-2.46","","","fixation_2","","","","","",""
"null","img_4.bmp","null","image-keyboard-response","449","367226","0.0-32.0-3.46","","","img_on","","","","","",""
"null","<div style=""font-size:60px;""> </div>","null","html-keyboard-response","450","367527","0.0-32.0-4.46","","","fixation_3","","","","","",""
"null","","null","html-keyboard-response","451","367533","0.0-32.0-5.46","","","test","uparrow","0","1","FALSE","FALSE",""
"null","<div style=""font-size:60px;""> </div>","null","html-keyboard-response","452","367834","0.0-32.0-6.46","","","fixation_4","","","","","",""
"387.30000001192093","arrows.png","38","image-keyboard-response","453","368223","0.0-32.0-7.46","","","test","uparrow","0","1","FALSE","FALSE","true"
"null","<p style=""color: green; font-size:300%;"">correct: $2.50</p>","null","html-keyboard-response","454","369475","0.0-32.0-8.46","","","","","","","","",""
"null","<div style=""font-size:60px;""> </div>","null","html-keyboard-response","455","370530","0.0-32.0-0.47","","","fixation_1","","","","","",""
"null","","null","image-keyboard-response","456","370536","0.0-32.0-1.47","","","test","rightarrow","0","1","FALSE","FALSE",""
"null","<div style=""font-size:60px;""> </div>","null","html-keyboard-response","457","370837","0.0-32.0-2.47","","","fixation_2","","","","","",""
"null","img_1.bmp","null","image-keyboard-response","458","371840","0.0-32.0-3.47","","","img_on","","","","","",""
"null","<div style=""font-size:60px;""> </div>","null","html-keyboard-response","459","372141","0.0-32.0-4.47","","","fixation_3","","","","","",""
"null","","null","html-keyboard-response","460","372147","0.0-32.0-5.47","","","test","rightarrow","0","1","FALSE","FALSE",""
"null","<div style=""font-size:60px;""> </div>","null","html-keyboard-response","461","372448","0.0-32.0-6.47","","","fixation_4","","","","","",""
"447.5999999642372","arrows.png","39","image-keyboard-response","462","372897","0.0-32.0-7.47","","","test","rightarrow","0","1","FALSE","FALSE","true"
"null","<p style=""color: green; font-size:300%;"">correct: $2.50</p>","null","html-keyboard-response","463","374149","0.0-32.0-8.47","","","","","","","","",""
"null","<div style=""font-size:60px;""> </div>","null","html-keyboard-response","464","375201","0.0-32.0-0.48","","","fixation_1","","","","","",""
"null","","null","image-keyboard-response","465","375206","0.0-32.0-1.48","","","test","rightarrow","0","1","FALSE","FALSE",""
"null","<div style=""font-size:60px;""> </div>","null","html-keyboard-response","466","375508","0.0-32.0-2.48","","","fixation_2","","","","","",""
"null","img_1.bmp","null","image-keyboard-response","467","376509","0.0-32.0-3.48","","","img_on","","","","","",""
"null","<div style=""font-size:60px;""> </div>","null","html-keyboard-response","468","376810","0.0-32.0-4.48","","","fixation_3","","","","","",""
"null","","null","html-keyboard-response","469","376816","0.0-32.0-5.48","","","test","rightarrow","0","1","FALSE","FALSE",""
"null","<div style=""font-size:60px;""> </div>","null","html-keyboard-response","470","377117","0.0-32.0-6.48","","","fixation_4","","","","","",""
"241.5999999642372","arrows.png","38","image-keyboard-response","471","377359","0.0-32.0-7.48","","","test","rightarrow","0","1","FALSE","FALSE","false"
"null","<p style=""color: red; font-size:300%;"">incorrect: $0</p>","null","html-keyboard-response","472","378618","0.0-32.0-8.48","","","","","","","","",""
"null","<div style=""font-size:60px;""> </div>","null","html-keyboard-response","473","379169","0.0-32.0-0.49","","","fixation_1","","","","","",""
"null","","null","image-keyboard-response","474","379175","0.0-32.0-1.49","","","test","downarrow","1","1","FALSE","FALSE",""
"null","<div style=""font-size:60px;""> </div>","null","html-keyboard-response","475","379476","0.0-32.0-2.49","","","fixation_2","","","","","",""
"null","img_2.bmp","null","image-keyboard-response","476","380478","0.0-32.0-3.49","","","img_on","","","","","",""
"null","<div style=""font-size:60px;""> </div>","null","html-keyboard-response","477","380780","0.0-32.0-4.49","","","fixation_3","","","","","",""
"null","","null","html-keyboard-response","478","380786","0.0-32.0-5.49","","","test","downarrow","1","1","FALSE","FALSE",""
"null","<div style=""font-size:60px;""> </div>","null","html-keyboard-response","479","381087","0.0-32.0-6.49","","","fixation_4","","","","","",""
"539.5999999642372","arrows.png","38","image-keyboard-response","480","381628","0.0-32.0-7.49","","","test","downarrow","1","1","FALSE","FALSE","false"
"null","<p style=""color: red; font-size:300%;"">incorrect: $0</p>","null","html-keyboard-response","481","382880","0.0-32.0-8.49","","","","","","","","",""
"null","<div style=""font-size:60px;""> </div>","null","html-keyboard-response","482","384431","0.0-32.0-0.50","","","fixation_1","","","","","",""
"null","switch_cue.png","null","image-keyboard-response","483","385433","0.0-32.0-1.50","","","test","uparrow","0","1","TRUE","TRUE",""
"null","<div style=""font-size:60px;""> </div>","null","html-keyboard-response","484","385736","0.0-32.0-2.50","","","fixation_2","","","","","",""
"null","img_4.bmp","null","image-keyboard-response","485","386737","0.0-32.0-3.50","","","img_on","","","","","",""
"null","<div style=""font-size:60px;""> </div>","null","html-keyboard-response","486","387039","0.0-32.0-4.50","","","fixation_3","","","","","",""
"null","<img src=""CC1.png"" width=200 height=200/>","null","html-keyboard-response","487","388040","0.0-32.0-5.50","","","test","uparrow","0","1","TRUE","TRUE",""
"null","<div style=""font-size:60px;""> </div>","null","html-keyboard-response","488","388342","0.0-32.0-6.50","","","fixation_4","","","","","",""
"116.30000001192093","arrows.png","38","image-keyboard-response","489","388459","0.0-32.0-7.50","","","test","uparrow","0","1","TRUE","TRUE","true"
"null","<p style=""color: green; font-size:300%;"">correct: $2.50</p>","null","html-keyboard-response","490","389712","0.0-32.0-8.50","","","","","","","","",""
"null","<div style=""font-size:60px;""> </div>","null","html-keyboard-response","491","390514","0.0-32.0-0.51","","","fixation_1","","","","","",""
"null","switch_cue.png","null","image-keyboard-response","492","391517","0.0-32.0-1.51","","","test","leftarrow","1","1","TRUE","TRUE",""
"null","<div style=""font-size:60px;""> </div>","null","html-keyboard-response","493","391819","0.0-32.0-2.51","","","fixation_2","","","","","",""
"null","img_3.bmp","null","image-keyboard-response","494","392821","0.0-32.0-3.51","","","img_on","","","","","",""
"null","<div style=""font-size:60px;""> </div>","null","html-keyboard-response","495","393122","0.0-32.0-4.51","","","fixation_3","","","","","",""
"null","<img src=""CC1.png"" width=200 height=200/>","null","html-keyboard-response","496","394123","0.0-32.0-5.51","","","test","leftarrow","1","1","TRUE","TRUE",""
"null","<div style=""font-size:60px;""> </div>","null","html-keyboard-response","497","394424","0.0-32.0-6.51","","","fixation_4","","","","","",""
"255.0999999642372","arrows.png","37","image-keyboard-response","498","394680","0.0-32.0-7.51","","","test","leftarrow","1","1","TRUE","TRUE","true"
"null","<p style=""color: green; font-size:300%;"">correct: $7.50</p>","null","html-keyboard-response","499","395933","0.0-32.0-8.51","","","","","","","","",""
"null","<div style=""font-size:60px;""> </div>","null","html-keyboard-response","500","396994","0.0-32.0-0.52","","","fixation_1","","","","","",""
"null","switch_cue.png","null","image-keyboard-response","501","397996","0.0-32.0-1.52","","","test","leftarrow","0","2","TRUE","TRUE",""
"null","<div style=""font-size:60px;""> </div>","null","html-keyboard-response","502","398298","0.0-32.0-2.52","","","fixation_2","","","","","",""
"null","img_4.bmp","null","image-keyboard-response","503","399299","0.0-32.0-3.52","","","img_on","","","","","",""
"null","<div style=""font-size:60px;""> </div>","null","html-keyboard-response","504","399600","0.0-32.0-4.52","","","fixation_3","","","","","",""
"null","<img src=""CC2.png"" width=200 height=200/>","null","html-keyboard-response","505","400602","0.0-32.0-5.52","","","test","leftarrow","0","2","TRUE","TRUE",""
"null","<div style=""font-size:60px;""> </div>","null","html-keyboard-response","506","400903","0.0-32.0-6.52","","","fixation_4","","","","","",""
"242.0999999642372","arrows.png","37","image-keyboard-response","507","401146","0.0-32.0-7.52","","","test","leftarrow","0","2","TRUE","TRUE","true"
"null","<p style=""color: green; font-size:300%;"">correct: $2.50</p>","null","html-keyboard-response","508","402399","0.0-32.0-8.52","","","","","","","","",""
"null","<div style=""font-size:60px;""> </div>","null","html-keyboard-response","509","403452","0.0-32.0-0.53","","","fixation_1","","","","","",""
"null","","null","image-keyboard-response","510","403457","0.0-32.0-1.53","","","test","uparrow","1","2","TRUE","FALSE",""
"null","<div style=""font-size:60px;""> </div>","null","html-keyboard-response","511","403758","0.0-32.0-2.53","","","fixation_2","","","","","",""
"null","img_1.bmp","null","image-keyboard-response","512","404761","0.0-32.0-3.53","","","img_on","","","","","",""
"null","<div style=""font-size:60px;""> </div>","null","html-keyboard-response","513","405062","0.0-32.0-4.53","","","fixation_3","","","","","",""
"null","<img src=""CC2.png"" width=200 height=200/>","null","html-keyboard-response","514","406064","0.0-32.0-5.53","","","test","uparrow","1","2","TRUE","FALSE",""
"null","<div style=""font-size:60px;""> </div>","null","html-keyboard-response","515","406377","0.0-32.0-6.53","","","fixation_4","","","","","",""
"128.79999995231628","arrows.png","39","image-keyboard-response","516","406507","0.0-32.0-7.53","","","test","uparrow","1","2","TRUE","FALSE","false"
"null","<p style=""color: red; font-size:300%;"">incorrect: $0</p>","null","html-keyboard-response","517","407759","0.0-32.0-8.53","","","","","","","","",""
"null","<div style=""font-size:60px;""> </div>","null","html-keyboard-response","518","408811","0.0-32.0-0.54","","","fixation_1","","","","","",""
"null","","null","image-keyboard-response","519","408816","0.0-32.0-1.54","","","test","rightarrow","1","2","TRUE","FALSE",""
"null","<div style=""font-size:60px;""> </div>","null","html-keyboard-response","520","409118","0.0-32.0-2.54","","","fixation_2","","","","","",""
"null","img_2.bmp","null","image-keyboard-response","521","410120","0.0-32.0-3.54","","","img_on","","","","","",""
"null","<div style=""font-size:60px;""> </div>","null","html-keyboard-response","522","410422","0.0-32.0-4.54","","","fixation_3","","","","","",""
"null","<img src=""CC2.png"" width=200 height=200/>","null","html-keyboard-response","523","411424","0.0-32.0-5.54","","","test","rightarrow","1","2","TRUE","FALSE",""
"null","<div style=""font-size:60px;""> </div>","null","html-keyboard-response","524","411725","0.0-32.0-6.54","","","fixation_4","","","","","",""
"206.30000001192093","arrows.png","40","image-keyboard-response","525","411932","0.0-32.0-7.54","","","test","rightarrow","1","2","TRUE","FALSE","false"
"null","<p style=""color: red; font-size:300%;"">incorrect: $0</p>","null","html-keyboard-response","526","413184","0.0-32.0-8.54","","","","","","","","",""
"null","<div style=""font-size:60px;""> </div>","null","html-keyboard-response","527","414490","0.0-32.0-0.55","","","fixation_1","","","","","",""
"null","","null","image-keyboard-response","528","414497","0.0-32.0-1.55","","","test","downarrow","0","2","TRUE","FALSE",""
"null","<div style=""font-size:60px;""> </div>","null","html-keyboard-response","529","414798","0.0-32.0-2.55","","","fixation_2","","","","","",""
"null","img_3.bmp","null","image-keyboard-response","530","415800","0.0-32.0-3.55","","","img_on","","","","","",""
"null","<div style=""font-size:60px;""> </div>","null","html-keyboard-response","531","416103","0.0-32.0-4.55","","","fixation_3","","","","","",""
"null","<img src=""CC2.png"" width=200 height=200/>","null","html-keyboard-response","532","417105","0.0-32.0-5.55","","","test","downarrow","0","2","TRUE","FALSE",""
"null","<div style=""font-size:60px;""> </div>","null","html-keyboard-response","533","417408","0.0-32.0-6.55","","","fixation_4","","","","","",""
"139.20000004768372","arrows.png","39","image-keyboard-response","534","417547","0.0-32.0-7.55","","","test","downarrow","0","2","TRUE","FALSE","false"
"null","<p style=""color: red; font-size:300%;"">incorrect: $0</p>","null","html-keyboard-response","535","418802","0.0-32.0-8.55","","","","","","","","",""
"null","<div style=""font-size:60px;""> </div>","null","html-keyboard-response","536","419354","0.0-32.0-0.56","","","fixation_1","","","","","",""
"null","","null","image-keyboard-response","537","419359","0.0-32.0-1.56","","","test","downarrow","0","2","FALSE","FALSE",""
"null","<div style=""font-size:60px;""> </div>","null","html-keyboard-response","538","419660","0.0-32.0-2.56","","","fixation_2","","","","","",""
"null","img_3.bmp","null","image-keyboard-response","539","420673","0.0-32.0-3.56","","","img_on","","","","","",""
"null","<div style=""font-size:60px;""> </div>","null","html-keyboard-response","540","420987","0.0-32.0-4.56","","","fixation_3","","","","","",""
"null","","null","html-keyboard-response","541","420992","0.0-32.0-5.56","","","test","downarrow","0","2","FALSE","FALSE",""
"null","<div style=""font-size:60px;""> </div>","null","html-keyboard-response","542","421293","0.0-32.0-6.56","","","fixation_4","","","","","",""
"407.19999998807907","arrows.png","37","image-keyboard-response","543","421701","0.0-32.0-7.56","","","test","downarrow","0","2","FALSE","FALSE","false"
"null","<p style=""color: red; font-size:300%;"">incorrect: $0</p>","null","html-keyboard-response","544","422953","0.0-32.0-8.56","","","","","","","","",""
"null","<div style=""font-size:60px;""> </div>","null","html-keyboard-response","545","423505","0.0-32.0-0.57","","","fixation_1","","","","","",""
"null","","null","image-keyboard-response","546","423510","0.0-32.0-1.57","","","test","uparrow","1","2","FALSE","FALSE",""
"null","<div style=""font-size:60px;""> </div>","null","html-keyboard-response","547","423811","0.0-32.0-2.57","","","fixation_2","","","","","",""
"null","img_1.bmp","null","image-keyboard-response","548","424813","0.0-32.0-3.57","","","img_on","","","","","",""
"null","<div style=""font-size:60px;""> </div>","null","html-keyboard-response","549","425114","0.0-32.0-4.57","","","fixation_3","","","","","",""
"null","","null","html-keyboard-response","550","425120","0.0-32.0-5.57","","","test","uparrow","1","2","FALSE","FALSE",""
"null","<div style=""font-size:60px;""> </div>","null","html-keyboard-response","551","425421","0.0-32.0-6.57","","","fixation_4","","","","","",""
"313.30000001192093","arrows.png","39","image-keyboard-response","552","425736","0.0-32.0-7.57","","","test","uparrow","1","2","FALSE","FALSE","false"
"null","<p style=""color: red; font-size:300%;"">incorrect: $0</p>","null","html-keyboard-response","553","426988","0.0-32.0-8.57","","","","","","","","",""
"null","<div style=""font-size:60px;""> </div>","null","html-keyboard-response","554","427791","0.0-32.0-0.58","","","fixation_1","","","","","",""
"null","","null","image-keyboard-response","555","427796","0.0-32.0-1.58","","","test","leftarrow","0","2","FALSE","FALSE",""
"null","<div style=""font-size:60px;""> </div>","null","html-keyboard-response","556","428097","0.0-32.0-2.58","","","fixation_2","","","","","",""
"null","img_4.bmp","null","image-keyboard-response","557","429099","0.0-32.0-3.58","","","img_on","","","","","",""
"null","<div style=""font-size:60px;""> </div>","null","html-keyboard-response","558","429400","0.0-32.0-4.58","","","fixation_3","","","","","",""
"null","","null","html-keyboard-response","559","429405","0.0-32.0-5.58","","","test","leftarrow","0","2","FALSE","FALSE",""
"null","<div style=""font-size:60px;""> </div>","null","html-keyboard-response","560","429707","0.0-32.0-6.58","","","fixation_4","","","","","",""
"319.60000002384186","arrows.png","37","image-keyboard-response","561","430027","0.0-32.0-7.58","","","test","leftarrow","0","2","FALSE","FALSE","true"
"null","<p style=""color: green; font-size:300%;"">correct: $2.50</p>","null","html-keyboard-response","562","431293","0.0-32.0-8.58","","","","","","","","",""
"null","<div style=""font-size:60px;""> </div>","null","html-keyboard-response","563","432095","0.0-32.0-0.59","","","fixation_1","","","","","",""
"null","","null","image-keyboard-response","564","432101","0.0-32.0-1.59","","","test","rightarrow","1","2","FALSE","FALSE",""
"null","<div style=""font-size:60px;""> </div>","null","html-keyboard-response","565","432403","0.0-32.0-2.59","","","fixation_2","","","","","",""
"null","img_2.bmp","null","image-keyboard-response","566","433405","0.0-32.0-3.59","","","img_on","","","","","",""
"null","<div style=""font-size:60px;""> </div>","null","html-keyboard-response","567","433707","0.0-32.0-4.59","","","fixation_3","","","","","",""
"null","","null","html-keyboard-response","568","433712","0.0-32.0-5.59","","","test","rightarrow","1","2","FALSE","FALSE",""
"null","<div style=""font-size:60px;""> </div>","null","html-keyboard-response","569","434013","0.0-32.0-6.59","","","fixation_4","","","","","",""
"296.69999998807907","arrows.png","38","image-keyboard-response","570","434311","0.0-32.0-7.59","","","test","rightarrow","1","2","FALSE","FALSE","false"
"null","<p style=""color: red; font-size:300%;"">incorrect: $0</p>","null","html-keyboard-response","571","435563","0.0-32.0-8.59","","","","","","","","",""
"null","<div style=""font-size:60px;""> </div>","null","html-keyboard-response","572","436615","0.0-32.0-0.60","","","fixation_1","","","","","",""
"null","","null","image-keyboard-response","573","436622","0.0-32.0-1.60","","","test","leftarrow","0","2","FALSE","FALSE",""
"null","<div style=""font-size:60px;""> </div>","null","html-keyboard-response","574","436923","0.0-32.0-2.60","","","fixation_2","","","","","",""
"null","img_4.bmp","null","image-keyboard-response","575","437925","0.0-32.0-3.60","","","img_on","","","","","",""
"null","<div style=""font-size:60px;""> </div>","null","html-keyboard-response","576","438227","0.0-32.0-4.60","","","fixation_3","","","","","",""
"null","","null","html-keyboard-response","577","438232","0.0-32.0-5.60","","","test","leftarrow","0","2","FALSE","FALSE",""
"null","<div style=""font-size:60px;""> </div>","null","html-keyboard-response","578","438534","0.0-32.0-6.60","","","fixation_4","","","","","",""
"588.0999999642372","arrows.png","37","image-keyboard-response","579","439123","0.0-32.0-7.60","","","test","leftarrow","0","2","FALSE","FALSE","true"
"null","<p style=""color: green; font-size:300%;"">correct: $2.50</p>","null","html-keyboard-response","580","440376","0.0-32.0-8.60","","","","","","","","",""
"null","<div style=""font-size:60px;""> </div>","null","html-keyboard-response","581","441928","0.0-32.0-0.61","","","fixation_1","","","","","",""
"null","","null","image-keyboard-response","582","441935","0.0-32.0-1.61","","","test","rightarrow","1","2","FALSE","FALSE",""
"null","<div style=""font-size:60px;""> </div>","null","html-keyboard-response","583","442237","0.0-32.0-2.61","","","fixation_2","","","","","",""
"null","img_2.bmp","null","image-keyboard-response","584","443240","0.0-32.0-3.61","","","img_on","","","","","",""
"null","<div style=""font-size:60px;""> </div>","null","html-keyboard-response","585","443542","0.0-32.0-4.61","","","fixation_3","","","","","",""
"null","","null","html-keyboard-response","586","443546","0.0-32.0-5.61","","","test","rightarrow","1","2","FALSE","FALSE",""
"null","<div style=""font-size:60px;""> </div>","null","html-keyboard-response","587","443848","0.0-32.0-6.61","","","fixation_4","","","","","",""
"226.10000002384186","arrows.png","40","image-keyboard-response","588","444075","0.0-32.0-7.61","","","test","rightarrow","1","2","FALSE","FALSE","false"
"null","<p style=""color: red; font-size:300%;"">incorrect: $0</p>","null","html-keyboard-response","589","445335","0.0-32.0-8.61","","","","","","","","",""
"null","<div style=""font-size:60px;""> </div>","null","html-keyboard-response","590","446137","0.0-32.0-0.62","","","fixation_1","","","","","",""
"null","","null","image-keyboard-response","591","446143","0.0-32.0-1.62","","","test","downarrow","0","2","FALSE","FALSE",""
"null","<div style=""font-size:60px;""> </div>","null","html-keyboard-response","592","446445","0.0-32.0-2.62","","","fixation_2","","","","","",""
"null","img_3.bmp","null","image-keyboard-response","593","447446","0.0-32.0-3.62","","","img_on","","","","","",""
"null","<div style=""font-size:60px;""> </div>","null","html-keyboard-response","594","447747","0.0-32.0-4.62","","","fixation_3","","","","","",""
"null","","null","html-keyboard-response","595","447752","0.0-32.0-5.62","","","test","downarrow","0","2","FALSE","FALSE",""
"null","<div style=""font-size:60px;""> </div>","null","html-keyboard-response","596","448054","0.0-32.0-6.62","","","fixation_4","","","","","",""
"332.0999999642372","arrows.png","38","image-keyboard-response","597","448387","0.0-32.0-7.62","","","test","downarrow","0","2","FALSE","FALSE","false"
"null","<p style=""color: red; font-size:300%;"">incorrect: $0</p>","null","html-keyboard-response","598","449640","0.0-32.0-8.62","","","","","","","","",""
"null","<div style=""font-size:60px;""> </div>","null","html-keyboard-response","599","450198","0.0-32.0-0.63","","","fixation_1","","","","","",""
"null","switch_cue.png","null","image-keyboard-response","600","451199","0.0-32.0-1.63","","","test","uparrow","1","2","TRUE","TRUE",""
"null","<div style=""font-size:60px;""> </div>","null","html-keyboard-response","601","451501","0.0-32.0-2.63","","","fixation_2","","","","","",""
"null","img_1.bmp","null","image-keyboard-response","602","452502","0.0-32.0-3.63","","","img_on","","","","","",""
"null","<div style=""font-size:60px;""> </div>","null","html-keyboard-response","603","452804","0.0-32.0-4.63","","","fixation_3","","","","","",""
"null","<img src=""CC2.png"" width=200 height=200/>","null","html-keyboard-response","604","453806","0.0-32.0-5.63","","","test","uparrow","1","2","TRUE","TRUE",""
"null","<div style=""font-size:60px;""> </div>","null","html-keyboard-response","605","454108","0.0-32.0-6.63","","","fixation_4","","","","","",""
"299.39999997615814","arrows.png","40","image-keyboard-response","606","454408","0.0-32.0-7.63","","","test","uparrow","1","2","TRUE","TRUE","false"
"null","<p style=""color: red; font-size:300%;"">incorrect: $0</p>","null","html-keyboard-response","607","455662","0.0-32.0-8.63","","","","","","","","",""
"null","<div style=""font-size:60px;""> </div>","null","html-keyboard-response","608","456965","0.0-32.0-0.64","","","fixation_1","","","","","",""
"null","switch_cue.png","null","image-keyboard-response","609","457967","0.0-32.0-1.64","","","test","rightarrow","0","1","TRUE","TRUE",""
"null","<div style=""font-size:60px;""> </div>","null","html-keyboard-response","610","458269","0.0-32.0-2.64","","","fixation_2","","","","","",""
"null","img_1.bmp","null","image-keyboard-response","611","459270","0.0-32.0-3.64","","","img_on","","","","","",""
"null","<div style=""font-size:60px;""> </div>","null","html-keyboard-response","612","459572","0.0-32.0-4.64","","","fixation_3","","","","","",""
"null","<img src=""CC1.png"" width=200 height=200/>","null","html-keyboard-response","613","460574","0.0-32.0-5.64","","","test","rightarrow","0","1","TRUE","TRUE",""
"null","<div style=""font-size:60px;""> </div>","null","html-keyboard-response","614","460875","0.0-32.0-6.64","","","fixation_4","","","","","",""
"763.1999999880791","arrows.png","39","image-keyboard-response","615","461639","0.0-32.0-7.64","","","test","rightarrow","0","1","TRUE","TRUE","true"
"null","<p style=""color: green; font-size:300%;"">correct: $2.50</p>","null","html-keyboard-response","616","462891","0.0-32.0-8.64","","","","","","","","",""
"null","<div style=""font-size:60px;""> </div>","null","html-keyboard-response","617","463955","0.0-32.0-0.65","","","fixation_1","","","","","",""
"null","","null","image-keyboard-response","618","463961","0.0-32.0-1.65","","","test","uparrow","0","1","TRUE","FALSE",""
"null","<div style=""font-size:60px;""> </div>","null","html-keyboard-response","619","464262","0.0-32.0-2.65","","","fixation_2","","","","","",""
"null","img_4.bmp","null","image-keyboard-response","620","465264","0.0-32.0-3.65","","","img_on","","","","","",""
"null","<div style=""font-size:60px;""> </div>","null","html-keyboard-response","621","465566","0.0-32.0-4.65","","","fixation_3","","","","","",""
"null","<img src=""CC1.png"" width=200 height=200/>","null","html-keyboard-response","622","466568","0.0-32.0-5.65","","","test","uparrow","0","1","TRUE","FALSE",""
"null","<div style=""font-size:60px;""> </div>","null","html-keyboard-response","623","466870","0.0-32.0-6.65","","","fixation_4","","","","","",""
"182.69999998807907","arrows.png","38","image-keyboard-response","624","467053","0.0-32.0-7.65","","","test","uparrow","0","1","TRUE","FALSE","true"
"null","<p style=""color: green; font-size:300%;"">correct: $2.50</p>","null","html-keyboard-response","625","468305","0.0-32.0-8.65","","","","","","","","",""
"null","<div style=""font-size:60px;""> </div>","null","html-keyboard-response","626","469357","0.0-32.0-0.66","","","fixation_1","","","","","",""
"null","","null","image-keyboard-response","627","469362","0.0-32.0-1.66","","","test","leftarrow","1","1","TRUE","FALSE",""
"null","<div style=""font-size:60px;""> </div>","null","html-keyboard-response","628","469664","0.0-32.0-2.66","","","fixation_2","","","","","",""
"null","img_3.bmp","null","image-keyboard-response","629","470665","0.0-32.0-3.66","","","img_on","","","","","",""
"null","<div style=""font-size:60px;""> </div>","null","html-keyboard-response","630","470967","0.0-32.0-4.66","","","fixation_3","","","","","",""
"null","<img src=""CC1.png"" width=200 height=200/>","null","html-keyboard-response","631","471969","0.0-32.0-5.66","","","test","leftarrow","1","1","TRUE","FALSE",""
"null","<div style=""font-size:60px;""> </div>","null","html-keyboard-response","632","472271","0.0-32.0-6.66","","","fixation_4","","","","","",""
"169","arrows.png","37","image-keyboard-response","633","472441","0.0-32.0-7.66","","","test","leftarrow","1","1","TRUE","FALSE","true"
"null","<p style=""color: green; font-size:300%;"">correct: $7.50</p>","null","html-keyboard-response","634","473693","0.0-32.0-8.66","","","","","","","","",""
"null","<div style=""font-size:60px;""> </div>","null","html-keyboard-response","635","474260","0.0-32.0-0.67","","","fixation_1","","","","","",""
"null","","null","image-keyboard-response","636","474265","0.0-32.0-1.67","","","test","downarrow","1","1","TRUE","FALSE",""
"null","<div style=""font-size:60px;""> </div>","null","html-keyboard-response","637","474567","0.0-32.0-2.67","","","fixation_2","","","","","",""
"null","img_2.bmp","null","image-keyboard-response","638","475569","0.0-32.0-3.67","","","img_on","","","","","",""
"null","<div style=""font-size:60px;""> </div>","null","html-keyboard-response","639","475870","0.0-32.0-4.67","","","fixation_3","","","","","",""
"null","<img src=""CC1.png"" width=200 height=200/>","null","html-keyboard-response","640","476873","0.0-32.0-5.67","","","test","downarrow","1","1","TRUE","FALSE",""
"null","<div style=""font-size:60px;""> </div>","null","html-keyboard-response","641","477174","0.0-32.0-6.67","","","fixation_4","","","","","",""
"231.10000002384186","arrows.png","40","image-keyboard-response","642","477406","0.0-32.0-7.67","","","test","downarrow","1","1","TRUE","FALSE","true"
"null","<p style=""color: green; font-size:300%;"">correct: $7.50</p>","null","html-keyboard-response","643","478658","0.0-32.0-8.67","","","","","","","","",""
"null","<div style=""font-size:60px;""> </div>","null","html-keyboard-response","644","480210","0.0-32.0-0.68","","","fixation_1","","","","","",""
"null","","null","image-keyboard-response","645","480216","0.0-32.0-1.68","","","test","downarrow","1","1","FALSE","FALSE",""
"null","<div style=""font-size:60px;""> </div>","null","html-keyboard-response","646","480518","0.0-32.0-2.68","","","fixation_2","","","","","",""
"null","img_2.bmp","null","image-keyboard-response","647","481519","0.0-32.0-3.68","","","img_on","","","","","",""
"null","<div style=""font-size:60px;""> </div>","null","html-keyboard-response","648","481821","0.0-32.0-4.68","","","fixation_3","","","","","",""
"null","","null","html-keyboard-response","649","481826","0.0-32.0-5.68","","","test","downarrow","1","1","FALSE","FALSE",""
"null","<div style=""font-size:60px;""> </div>","null","html-keyboard-response","650","482128","0.0-32.0-6.68","","","fixation_4","","","","","",""
"339.60000002384186","arrows.png","40","image-keyboard-response","651","482469","0.0-32.0-7.68","","","test","downarrow","1","1","FALSE","FALSE","true"
"null","<p style=""color: green; font-size:300%;"">correct: $7.50</p>","null","html-keyboard-response","652","483721","0.0-32.0-8.68","","","","","","","","",""
"null","<div style=""font-size:60px;""> </div>","null","html-keyboard-response","653","485023","0.0-32.0-0.69","","","fixation_1","","","","","",""
"null","","null","image-keyboard-response","654","485029","0.0-32.0-1.69","","","test","uparrow","0","1","FALSE","FALSE",""
"null","<div style=""font-size:60px;""> </div>","null","html-keyboard-response","655","485331","0.0-32.0-2.69","","","fixation_2","","","","","",""
"null","img_4.bmp","null","image-keyboard-response","656","486334","0.0-32.0-3.69","","","img_on","","","","","",""
"null","<div style=""font-size:60px;""> </div>","null","html-keyboard-response","657","486635","0.0-32.0-4.69","","","fixation_3","","","","","",""
"null","","null","html-keyboard-response","658","486640","0.0-32.0-5.69","","","test","uparrow","0","1","FALSE","FALSE",""
"null","<div style=""font-size:60px;""> </div>","null","html-keyboard-response","659","486942","0.0-32.0-6.69","","","fixation_4","","","","","",""
"402.7999999523163","arrows.png","38","image-keyboard-response","660","487346","0.0-32.0-7.69","","","test","uparrow","0","1","FALSE","FALSE","true"
"null","<p style=""color: green; font-size:300%;"">correct: $2.50</p>","null","html-keyboard-response","661","488598","0.0-32.0-8.69","","","","","","","","",""
"null","<div style=""font-size:60px;""> </div>","null","html-keyboard-response","662","489899","0.0-32.0-0.70","","","fixation_1","","","","","",""
"null","","null","image-keyboard-response","663","489906","0.0-32.0-1.70","","","test","leftarrow","1","1","FALSE","FALSE",""
"null","<div style=""font-size:60px;""> </div>","null","html-keyboard-response","664","490207","0.0-32.0-2.70","","","fixation_2","","","","","",""
"null","img_3.bmp","null","image-keyboard-response","665","491209","0.0-32.0-3.70","","","img_on","","","","","",""
"null","<div style=""font-size:60px;""> </div>","null","html-keyboard-response","666","491511","0.0-32.0-4.70","","","fixation_3","","","","","",""
"null","","null","html-keyboard-response","667","491517","0.0-32.0-5.70","","","test","leftarrow","1","1","FALSE","FALSE",""
"null","<div style=""font-size:60px;""> </div>","null","html-keyboard-response","668","491818","0.0-32.0-6.70","","","fixation_4","","","","","",""
"372.10000002384186","arrows.png","37","image-keyboard-response","669","492191","0.0-32.0-7.70","","","test","leftarrow","1","1","FALSE","FALSE","true"
"null","<p style=""color: green; font-size:300%;"">correct: $7.50</p>","null","html-keyboard-response","670","493443","0.0-32.0-8.70","","","","","","","","",""
"null","<div style=""font-size:60px;""> </div>","null","html-keyboard-response","671","494751","0.0-32.0-0.71","","","fixation_1","","","","","",""
"null","","null","image-keyboard-response","672","494757","0.0-32.0-1.71","","","test","rightarrow","0","1","FALSE","FALSE",""
"null","<div style=""font-size:60px;""> </div>","null","html-keyboard-response","673","495059","0.0-32.0-2.71","","","fixation_2","","","","","",""
"null","img_1.bmp","null","image-keyboard-response","674","496061","0.0-32.0-3.71","","","img_on","","","","","",""
"null","<div style=""font-size:60px;""> </div>","null","html-keyboard-response","675","496363","0.0-32.0-4.71","","","fixation_3","","","","","",""
"null","","null","html-keyboard-response","676","496368","0.0-32.0-5.71","","","test","rightarrow","0","1","FALSE","FALSE",""
"null","<div style=""font-size:60px;""> </div>","null","html-keyboard-response","677","496670","0.0-32.0-6.71","","","fixation_4","","","","","",""
"326.19999998807907","arrows.png","39","image-keyboard-response","678","496997","0.0-32.0-7.71","","","test","rightarrow","0","1","FALSE","FALSE","true"
"null","<p style=""color: green; font-size:300%;"">correct: $2.50</p>","null","html-keyboard-response","679","498251","0.0-32.0-8.71","","","","","","","","",""
"null","<div style=""font-size:60px;""> </div>","null","html-keyboard-response","680","499304","0.0-32.0-0.72","","","fixation_1","","","","","",""
"null","","null","image-keyboard-response","681","499310","0.0-32.0-1.72","","","test","leftarrow","1","1","FALSE","FALSE",""
"null","<div style=""font-size:60px;""> </div>","null","html-keyboard-response","682","499613","0.0-32.0-2.72","","","fixation_2","","","","","",""
"null","img_3.bmp","null","image-keyboard-response","683","500616","0.0-32.0-3.72","","","img_on","","","","","",""
"null","<div style=""font-size:60px;""> </div>","null","html-keyboard-response","684","500918","0.0-32.0-4.72","","","fixation_3","","","","","",""
"null","","null","html-keyboard-response","685","500923","0.0-32.0-5.72","","","test","leftarrow","1","1","FALSE","FALSE",""
"null","<div style=""font-size:60px;""> </div>","null","html-keyboard-response","686","501239","0.0-32.0-6.72","","","fixation_4","","","","","",""
"375.5","arrows.png","37","image-keyboard-response","687","501616","0.0-32.0-7.72","","","test","leftarrow","1","1","FALSE","FALSE","true"
"null","<p style=""color: green; font-size:300%;"">correct: $7.50</p>","null","html-keyboard-response","688","502868","0.0-32.0-8.72","","","","","","","","",""
"null","<div style=""font-size:60px;""> </div>","null","html-keyboard-response","689","503669","0.0-32.0-0.73","","","fixation_1","","","","","",""
"null","","null","image-keyboard-response","690","503674","0.0-32.0-1.73","","","test","downarrow","1","1","FALSE","FALSE",""
"null","<div style=""font-size:60px;""> </div>","null","html-keyboard-response","691","503975","0.0-32.0-2.73","","","fixation_2","","","","","",""
"null","img_2.bmp","null","image-keyboard-response","692","504977","0.0-32.0-3.73","","","img_on","","","","","",""
