"rt","stimulus","key_press","trial_type","trial_index","time_elapsed","internal_node_id","responses","view_history","test_part","correct_response","outcome","context","cc","sc","correct"
"3015.300000190735","<p><b>Welcome to the Picture Learning Game!</b></p>
      <p>The game will take ~35 minutes to complete, and you can make up to $17.50.</p>
      <p>You must use a desktop or laptop computer computer (no mobile devices).</p>
      <p><em>Press any key to continue.</em></p>","32","html-keyboard-response","0","3022","0.0-0.0","","","","","","","","",""
"11082.400000095367","","","survey-text","1","14109","0.0-1.0","{""aws"":""A1FVXS8IM5QYO8""}","","","","","","","",""
"19076.699999809265","","","survey-text","2","33189","0.0-2.0","{""age"":""55"",""english"":""Y"",""handedness"":""L"",""desktop"":""Y""}","","","","","","","",""
"28342.599999904633","","","instructions","3","61532","0.0-3.0","","[{""page_index"":0,""viewing_time"":1859.3999996185303},{""page_index"":1,""viewing_time"":7621.700000286102},{""page_index"":2,""viewing_time"":4208.400000095367},{""page_index"":3,""viewing_time"":10896.599999904633},{""page_index"":4,""viewing_time"":3756.2999997138977}]","","","","","","",""
"null","sample1.bmp","null","image-keyboard-response","4","62535","0.0-4.0","","","","","","","","",""
"883.9000000953674","arrows.png","38","image-keyboard-response","5","63724","0.0-5.0","","","","","","","","",""
"13770.400000095367","","","instructions","6","77495","0.0-6.0","","[{""page_index"":0,""viewing_time"":1202.5999999046326},{""page_index"":1,""viewing_time"":9563.700000286102},{""page_index"":2,""viewing_time"":3003.5999999046326}]","","","","","","",""
"null","sample1.bmp","null","image-keyboard-response","7","78498","0.0-7.0","","","","","","","","",""
"null","<img src=""CC1.png"" width=200 height=200/>","null","html-keyboard-response","8","79809","0.0-8.0","","","","","","","","",""
"397.90000009536743","arrows.png","38","image-keyboard-response","9","80514","0.0-9.0","","","","","","","","",""
"7137.700000286102","","","instructions","10","87652","0.0-10.0","","[{""page_index"":0,""viewing_time"":2979.6000003814697},{""page_index"":1,""viewing_time"":4157.599999904633}]","","","","","","",""
"null","sample1.bmp","null","image-keyboard-response","11","88658","0.0-11.0","","","","","","","","",""
"null","<img src=""CC2.png"" width=200 height=200/>","null","html-keyboard-response","12","89965","0.0-12.0","","","","","","","","",""
"972.1000003814697","arrows.png","39","image-keyboard-response","13","91243","0.0-13.0","","","","","","","","",""
"161340.59999990463","","","instructions","14","252583","0.0-14.0","","[{""page_index"":0,""viewing_time"":2167.5},{""page_index"":1,""viewing_time"":7586.5},{""page_index"":2,""viewing_time"":9264.299999713898},{""page_index"":3,""viewing_time"":137930},{""page_index"":4,""viewing_time"":4391.10000038147}]","","","","","","",""
"null","sample1.bmp","null","image-keyboard-response","15","253590","0.0-15.0","","","","","","","","",""
"4932","arrows.png","39","image-keyboard-response","16","258827","0.0-16.0","","","","","","","","",""
"12572.700000286102","","","instructions","17","271400","0.0-17.0","","[{""page_index"":0,""viewing_time"":5105.599999904633},{""page_index"":1,""viewing_time"":4982.800000190735},{""page_index"":2,""viewing_time"":2483.9000000953674}]","","","","","","",""
"null","sample1.bmp","null","image-keyboard-response","18","272406","0.0-18.0","","","","","","","","",""
"431.3999996185303","arrows.png","39","image-keyboard-response","19","273142","0.0-19.0","","","","","","","","",""
"null","<p style=""color: green; font-size:300%;"">correct</p>","null","html-keyboard-response","20","274148","0.0-20.0","","","","","","","","",""
"null","switch_cue.png","null","image-keyboard-response","21","275458","0.0-21.0","","","","","","","","",""
"null","sample1.bmp","null","image-keyboard-response","22","276763","0.0-22.0","","","","","","","","",""
"null","<img src=""CC2.png"" width=200 height=200/>","null","html-keyboard-response","23","278070","0.0-23.0","","","","","","","","",""
"187","arrows.png","39","image-keyboard-response","24","278562","0.0-24.0","","","","","","","","",""
"null","<p style=""color: green; font-size:300%;"">correct</p>","null","html-keyboard-response","25","279567","0.0-25.0","","","","","","","","",""
"null","switch_cue.png","null","image-keyboard-response","26","280876","0.0-26.0","","","","","","","","",""
"null","sample1.bmp","null","image-keyboard-response","27","282183","0.0-27.0","","","","","","","","",""
"null","<img src=""CC1.png"" width=200 height=200/>","null","html-keyboard-response","28","283488","0.0-28.0","","","","","","","","",""
"55.59999990463257","arrows.png","38","image-keyboard-response","29","283848","0.0-29.0","","","","","","","","",""
"null","<p style=""color: green; font-size:300%;"">correct</p>","null","html-keyboard-response","30","284854","0.0-30.0","","","","","","","","",""
"43961.699999809265","","","instructions","31","329121","0.0-31.0","","[{""page_index"":0,""viewing_time"":5040.599999904633},{""page_index"":1,""viewing_time"":1474},{""page_index"":2,""viewing_time"":10317.099999904633},{""page_index"":3,""viewing_time"":7369.5},{""page_index"":4,""viewing_time"":3477.4000000953674},{""page_index"":5,""viewing_time"":2326.0999999046326},{""page_index"":6,""viewing_time"":12175.700000286102},{""page_index"":7,""viewing_time"":1780.6999998092651}]","","","","","","",""
"null","<div style=""font-size:60px;""> </div>","null","html-keyboard-response","32","329428","0.0-32.0-0.0","","","fixation_1","","","","","",""
"null","","null","image-keyboard-response","33","329435","0.0-32.0-1.0","","","test","leftarrow","0","1","TRUE","FALSE",""
"null","<div style=""font-size:60px;""> </div>","null","html-keyboard-response","34","329739","0.0-32.0-2.0","","","fixation_2","","","","","",""
"null","img_4.bmp","null","image-keyboard-response","35","330745","0.0-32.0-3.0","","","img_on","","","","","",""
"null","<div style=""font-size:60px;""> </div>","null","html-keyboard-response","36","331047","0.0-32.0-4.0","","","fixation_3","","","","","",""
"null","<img src=""CC1.png"" width=200 height=200/>","null","html-keyboard-response","37","332053","0.0-32.0-5.0","","","test","leftarrow","0","1","TRUE","FALSE",""
"null","<div style=""font-size:60px;""> </div>","null","html-keyboard-response","38","332357","0.0-32.0-6.0","","","fixation_4","","","","","",""
"408.59999990463257","arrows.png","37","image-keyboard-response","39","332768","0.0-32.0-7.0","","","test","leftarrow","0","1","TRUE","FALSE","true"
"null","<p style=""color: green; font-size:300%;"">correct: $2.50</p>","null","html-keyboard-response","40","334027","0.0-32.0-8.0","","","","","","","","",""
"null","<div style=""font-size:60px;""> </div>","null","html-keyboard-response","41","334837","0.0-32.0-0.1","","","fixation_1","","","","","",""
"null","","null","image-keyboard-response","42","334844","0.0-32.0-1.1","","","test","downarrow","0","1","TRUE","FALSE",""
"null","<div style=""font-size:60px;""> </div>","null","html-keyboard-response","43","335147","0.0-32.0-2.1","","","fixation_2","","","","","",""
"null","img_3.bmp","null","image-keyboard-response","44","336153","0.0-32.0-3.1","","","img_on","","","","","",""
"null","<div style=""font-size:60px;""> </div>","null","html-keyboard-response","45","336458","0.0-32.0-4.1","","","fixation_3","","","","","",""
"null","<img src=""CC1.png"" width=200 height=200/>","null","html-keyboard-response","46","337461","0.0-32.0-5.1","","","test","downarrow","0","1","TRUE","FALSE",""
"null","<div style=""font-size:60px;""> </div>","null","html-keyboard-response","47","337765","0.0-32.0-6.1","","","fixation_4","","","","","",""
"965.2999997138977","arrows.png","40","image-keyboard-response","48","338732","0.0-32.0-7.1","","","test","downarrow","0","1","TRUE","FALSE","true"
"null","<p style=""color: green; font-size:300%;"">correct: $2.50</p>","null","html-keyboard-response","49","339989","0.0-32.0-8.1","","","","","","","","",""
"null","<div style=""font-size:60px;""> </div>","null","html-keyboard-response","50","341547","0.0-32.0-0.2","","","fixation_1","","","","","",""
"null","","null","image-keyboard-response","51","341554","0.0-32.0-1.2","","","test","uparrow","1","1","TRUE","FALSE",""
"null","<div style=""font-size:60px;""> </div>","null","html-keyboard-response","52","341855","0.0-32.0-2.2","","","fixation_2","","","","","",""
"null","img_1.bmp","null","image-keyboard-response","53","342858","0.0-32.0-3.2","","","img_on","","","","","",""
"null","<div style=""font-size:60px;""> </div>","null","html-keyboard-response","54","343162","0.0-32.0-4.2","","","fixation_3","","","","","",""
"null","<img src=""CC1.png"" width=200 height=200/>","null","html-keyboard-response","55","344165","0.0-32.0-5.2","","","test","uparrow","1","1","TRUE","FALSE",""
"null","<div style=""font-size:60px;""> </div>","null","html-keyboard-response","56","344469","0.0-32.0-6.2","","","fixation_4","","","","","",""
"394.2999997138977","arrows.png","39","image-keyboard-response","57","344866","0.0-32.0-7.2","","","test","uparrow","1","1","TRUE","FALSE","false"
"null","<p style=""color: red; font-size:300%;"">incorrect: $0</p>","null","html-keyboard-response","58","346123","0.0-32.0-8.2","","","","","","","","",""
"null","<div style=""font-size:60px;""> </div>","null","html-keyboard-response","59","346933","0.0-32.0-0.3","","","fixation_1","","","","","",""
"null","","null","image-keyboard-response","60","346939","0.0-32.0-1.3","","","test","rightarrow","1","1","TRUE","FALSE",""
"null","<div style=""font-size:60px;""> </div>","null","html-keyboard-response","61","347242","0.0-32.0-2.3","","","fixation_2","","","","","",""
"null","img_2.bmp","null","image-keyboard-response","62","348245","0.0-32.0-3.3","","","img_on","","","","","",""
"null","<div style=""font-size:60px;""> </div>","null","html-keyboard-response","63","348549","0.0-32.0-4.3","","","fixation_3","","","","","",""
"null","<img src=""CC1.png"" width=200 height=200/>","null","html-keyboard-response","64","349556","0.0-32.0-5.3","","","test","rightarrow","1","1","TRUE","FALSE",""
"null","<div style=""font-size:60px;""> </div>","null","html-keyboard-response","65","349860","0.0-32.0-6.3","","","fixation_4","","","","","",""
"274.90000009536743","arrows.png","39","image-keyboard-response","66","350136","0.0-32.0-7.3","","","test","rightarrow","1","1","TRUE","FALSE","true"
"null","<p style=""color: green; font-size:300%;"">correct: $7.50</p>","null","html-keyboard-response","67","351392","0.0-32.0-8.3","","","","","","","","",""
"null","<div style=""font-size:60px;""> </div>","null","html-keyboard-response","68","352698","0.0-32.0-0.4","","","fixation_1","","","","","",""
"null","","null","image-keyboard-response","69","352704","0.0-32.0-1.4","","","test","uparrow","1","1","FALSE","FALSE",""
"null","<div style=""font-size:60px;""> </div>","null","html-keyboard-response","70","353013","0.0-32.0-2.4","","","fixation_2","","","","","",""
"null","img_1.bmp","null","image-keyboard-response","71","354020","0.0-32.0-3.4","","","img_on","","","","","",""
"null","<div style=""font-size:60px;""> </div>","null","html-keyboard-response","72","354325","0.0-32.0-4.4","","","fixation_3","","","","","",""
"null","","null","html-keyboard-response","73","354331","0.0-32.0-5.4","","","test","uparrow","1","1","FALSE","FALSE",""
"null","<div style=""font-size:60px;""> </div>","null","html-keyboard-response","74","354634","0.0-32.0-6.4","","","fixation_4","","","","","",""
"1666.5999999046326","arrows.png","38","image-keyboard-response","75","356303","0.0-32.0-7.4","","","test","uparrow","1","1","FALSE","FALSE","true"
"null","<p style=""color: green; font-size:300%;"">correct: $7.50</p>","null","html-keyboard-response","76","357562","0.0-32.0-8.4","","","","","","","","",""
"null","<div style=""font-size:60px;""> </div>","null","html-keyboard-response","77","359120","0.0-32.0-0.5","","","fixation_1","","","","","",""
"null","","null","image-keyboard-response","78","359126","0.0-32.0-1.5","","","test","leftarrow","0","1","FALSE","FALSE",""
"null","<div style=""font-size:60px;""> </div>","null","html-keyboard-response","79","359428","0.0-32.0-2.5","","","fixation_2","","","","","",""
"null","img_4.bmp","null","image-keyboard-response","80","360434","0.0-32.0-3.5","","","img_on","","","","","",""
"null","<div style=""font-size:60px;""> </div>","null","html-keyboard-response","81","360740","0.0-32.0-4.5","","","fixation_3","","","","","",""
"null","","null","html-keyboard-response","82","360746","0.0-32.0-5.5","","","test","leftarrow","0","1","FALSE","FALSE",""
"null","<div style=""font-size:60px;""> </div>","null","html-keyboard-response","83","361050","0.0-32.0-6.5","","","fixation_4","","","","","",""
"949.2999997138977","arrows.png","37","image-keyboard-response","84","362001","0.0-32.0-7.5","","","test","leftarrow","0","1","FALSE","FALSE","true"
"null","<p style=""color: green; font-size:300%;"">correct: $2.50</p>","null","html-keyboard-response","85","363258","0.0-32.0-8.5","","","","","","","","",""
"null","<div style=""font-size:60px;""> </div>","null","html-keyboard-response","86","363818","0.0-32.0-0.6","","","fixation_1","","","","","",""
"null","","null","image-keyboard-response","87","363825","0.0-32.0-1.6","","","test","downarrow","0","1","FALSE","FALSE",""
"null","<div style=""font-size:60px;""> </div>","null","html-keyboard-response","88","364128","0.0-32.0-2.6","","","fixation_2","","","","","",""
"null","img_3.bmp","null","image-keyboard-response","89","365134","0.0-32.0-3.6","","","img_on","","","","","",""
"null","<div style=""font-size:60px;""> </div>","null","html-keyboard-response","90","365440","0.0-32.0-4.6","","","fixation_3","","","","","",""
"null","","null","html-keyboard-response","91","365445","0.0-32.0-5.6","","","test","downarrow","0","1","FALSE","FALSE",""
"null","<div style=""font-size:60px;""> </div>","null","html-keyboard-response","92","365749","0.0-32.0-6.6","","","fixation_4","","","","","",""
"2196.0999999046326","arrows.png","40","image-keyboard-response","93","367947","0.0-32.0-7.6","","","test","downarrow","0","1","FALSE","FALSE","true"
"null","<p style=""color: green; font-size:300%;"">correct: $2.50</p>","null","html-keyboard-response","94","369205","0.0-32.0-8.6","","","","","","","","",""
"null","<div style=""font-size:60px;""> </div>","null","html-keyboard-response","95","370015","0.0-32.0-0.7","","","fixation_1","","","","","",""
"null","","null","image-keyboard-response","96","370022","0.0-32.0-1.7","","","test","rightarrow","1","1","FALSE","FALSE",""
"null","<div style=""font-size:60px;""> </div>","null","html-keyboard-response","97","370328","0.0-32.0-2.7","","","fixation_2","","","","","",""
"null","img_2.bmp","null","image-keyboard-response","98","371333","0.0-32.0-3.7","","","img_on","","","","","",""
"null","<div style=""font-size:60px;""> </div>","null","html-keyboard-response","99","371637","0.0-32.0-4.7","","","fixation_3","","","","","",""
"null","","null","html-keyboard-response","100","371643","0.0-32.0-5.7","","","test","rightarrow","1","1","FALSE","FALSE",""
"null","<div style=""font-size:60px;""> </div>","null","html-keyboard-response","101","371946","0.0-32.0-6.7","","","fixation_4","","","","","",""
"1901.6999998092651","arrows.png","39","image-keyboard-response","102","373850","0.0-32.0-7.7","","","test","rightarrow","1","1","FALSE","FALSE","true"
"null","<p style=""color: green; font-size:300%;"">correct: $7.50</p>","null","html-keyboard-response","103","375109","0.0-32.0-8.7","","","","","","","","",""
"null","<div style=""font-size:60px;""> </div>","null","html-keyboard-response","104","376165","0.0-32.0-0.8","","","fixation_1","","","","","",""
"null","","null","image-keyboard-response","105","376172","0.0-32.0-1.8","","","test","leftarrow","0","1","FALSE","FALSE",""
"null","<div style=""font-size:60px;""> </div>","null","html-keyboard-response","106","376474","0.0-32.0-2.8","","","fixation_2","","","","","",""
"null","img_4.bmp","null","image-keyboard-response","107","377481","0.0-32.0-3.8","","","img_on","","","","","",""
"null","<div style=""font-size:60px;""> </div>","null","html-keyboard-response","108","377786","0.0-32.0-4.8","","","fixation_3","","","","","",""
"null","","null","html-keyboard-response","109","377792","0.0-32.0-5.8","","","test","leftarrow","0","1","FALSE","FALSE",""
"null","<div style=""font-size:60px;""> </div>","null","html-keyboard-response","110","378095","0.0-32.0-6.8","","","fixation_4","","","","","",""
"707.3000001907349","arrows.png","37","image-keyboard-response","111","378805","0.0-32.0-7.8","","","test","leftarrow","0","1","FALSE","FALSE","true"
"null","<p style=""color: green; font-size:300%;"">correct: $2.50</p>","null","html-keyboard-response","112","380067","0.0-32.0-8.8","","","","","","","","",""
"null","<div style=""font-size:60px;""> </div>","null","html-keyboard-response","113","380624","0.0-32.0-0.9","","","fixation_1","","","","","",""
"null","","null","image-keyboard-response","114","380630","0.0-32.0-1.9","","","test","uparrow","1","1","FALSE","FALSE",""
"null","<div style=""font-size:60px;""> </div>","null","html-keyboard-response","115","380933","0.0-32.0-2.9","","","fixation_2","","","","","",""
"null","img_1.bmp","null","image-keyboard-response","116","381940","0.0-32.0-3.9","","","img_on","","","","","",""
"null","<div style=""font-size:60px;""> </div>","null","html-keyboard-response","117","382245","0.0-32.0-4.9","","","fixation_3","","","","","",""
"null","","null","html-keyboard-response","118","382251","0.0-32.0-5.9","","","test","uparrow","1","1","FALSE","FALSE",""
"null","<div style=""font-size:60px;""> </div>","null","html-keyboard-response","119","382554","0.0-32.0-6.9","","","fixation_4","","","","","",""
"826.0999999046326","arrows.png","38","image-keyboard-response","120","383382","0.0-32.0-7.9","","","test","uparrow","1","1","FALSE","FALSE","true"
"null","<p style=""color: green; font-size:300%;"">correct: $7.50</p>","null","html-keyboard-response","121","384641","0.0-32.0-8.9","","","","","","","","",""
"null","<div style=""font-size:60px;""> </div>","null","html-keyboard-response","122","385450","0.0-32.0-0.10","","","fixation_1","","","","","",""
"null","","null","image-keyboard-response","123","385456","0.0-32.0-1.10","","","test","downarrow","0","1","FALSE","FALSE",""
"null","<div style=""font-size:60px;""> </div>","null","html-keyboard-response","124","385760","0.0-32.0-2.10","","","fixation_2","","","","","",""
"null","img_3.bmp","null","image-keyboard-response","125","386767","0.0-32.0-3.10","","","img_on","","","","","",""
"null","<div style=""font-size:60px;""> </div>","null","html-keyboard-response","126","387071","0.0-32.0-4.10","","","fixation_3","","","","","",""
"null","","null","html-keyboard-response","127","387077","0.0-32.0-5.10","","","test","downarrow","0","1","FALSE","FALSE",""
"null","<div style=""font-size:60px;""> </div>","null","html-keyboard-response","128","387381","0.0-32.0-6.10","","","fixation_4","","","","","",""
"515.1999998092651","arrows.png","40","image-keyboard-response","129","387898","0.0-32.0-7.10","","","test","downarrow","0","1","FALSE","FALSE","true"
"null","<p style=""color: green; font-size:300%;"">correct: $2.50</p>","null","html-keyboard-response","130","389157","0.0-32.0-8.10","","","","","","","","",""
"null","<div style=""font-size:60px;""> </div>","null","html-keyboard-response","131","389967","0.0-32.0-0.11","","","fixation_1","","","","","",""
"null","","null","image-keyboard-response","132","389974","0.0-32.0-1.11","","","test","rightarrow","1","1","FALSE","FALSE",""
"null","<div style=""font-size:60px;""> </div>","null","html-keyboard-response","133","390277","0.0-32.0-2.11","","","fixation_2","","","","","",""
"null","img_2.bmp","null","image-keyboard-response","134","391284","0.0-32.0-3.11","","","img_on","","","","","",""
"null","<div style=""font-size:60px;""> </div>","null","html-keyboard-response","135","391585","0.0-32.0-4.11","","","fixation_3","","","","","",""
"null","","null","html-keyboard-response","136","391592","0.0-32.0-5.11","","","test","rightarrow","1","1","FALSE","FALSE",""
"null","<div style=""font-size:60px;""> </div>","null","html-keyboard-response","137","391897","0.0-32.0-6.11","","","fixation_4","","","","","",""
"564.1999998092651","arrows.png","39","image-keyboard-response","138","392463","0.0-32.0-7.11","","","test","rightarrow","1","1","FALSE","FALSE","true"
"null","<p style=""color: green; font-size:300%;"">correct: $7.50</p>","null","html-keyboard-response","139","393722","0.0-32.0-8.11","","","","","","","","",""
"null","<div style=""font-size:60px;""> </div>","null","html-keyboard-response","140","395029","0.0-32.0-0.12","","","fixation_1","","","","","",""
"null","","null","image-keyboard-response","141","395035","0.0-32.0-1.12","","","test","downarrow","0","1","FALSE","FALSE",""
"null","<div style=""font-size:60px;""> </div>","null","html-keyboard-response","142","395338","0.0-32.0-2.12","","","fixation_2","","","","","",""
"null","img_3.bmp","null","image-keyboard-response","143","396344","0.0-32.0-3.12","","","img_on","","","","","",""
"null","<div style=""font-size:60px;""> </div>","null","html-keyboard-response","144","396649","0.0-32.0-4.12","","","fixation_3","","","","","",""
"null","","null","html-keyboard-response","145","396655","0.0-32.0-5.12","","","test","downarrow","0","1","FALSE","FALSE",""
"null","<div style=""font-size:60px;""> </div>","null","html-keyboard-response","146","396959","0.0-32.0-6.12","","","fixation_4","","","","","",""
"397.09999990463257","arrows.png","40","image-keyboard-response","147","397357","0.0-32.0-7.12","","","test","downarrow","0","1","FALSE","FALSE","true"
"null","<p style=""color: green; font-size:300%;"">correct: $2.50</p>","null","html-keyboard-response","148","398613","0.0-32.0-8.12","","","","","","","","",""
"null","<div style=""font-size:60px;""> </div>","null","html-keyboard-response","149","399173","0.0-32.0-0.13","","","fixation_1","","","","","",""
"null","","null","image-keyboard-response","150","399179","0.0-32.0-1.13","","","test","rightarrow","1","1","FALSE","FALSE",""
"null","<div style=""font-size:60px;""> </div>","null","html-keyboard-response","151","399482","0.0-32.0-2.13","","","fixation_2","","","","","",""
"null","img_2.bmp","null","image-keyboard-response","152","400489","0.0-32.0-3.13","","","img_on","","","","","",""
"null","<div style=""font-size:60px;""> </div>","null","html-keyboard-response","153","400793","0.0-32.0-4.13","","","fixation_3","","","","","",""
"null","","null","html-keyboard-response","154","400799","0.0-32.0-5.13","","","test","rightarrow","1","1","FALSE","FALSE",""
"null","<div style=""font-size:60px;""> </div>","null","html-keyboard-response","155","401103","0.0-32.0-6.13","","","fixation_4","","","","","",""
"645.9000000953674","arrows.png","39","image-keyboard-response","156","401749","0.0-32.0-7.13","","","test","rightarrow","1","1","FALSE","FALSE","true"
"null","<p style=""color: green; font-size:300%;"">correct: $7.50</p>","null","html-keyboard-response","157","403006","0.0-32.0-8.13","","","","","","","","",""
"null","<div style=""font-size:60px;""> </div>","null","html-keyboard-response","158","404063","0.0-32.0-0.14","","","fixation_1","","","","","",""
"null","","null","image-keyboard-response","159","404070","0.0-32.0-1.14","","","test","leftarrow","0","1","FALSE","FALSE",""
"null","<div style=""font-size:60px;""> </div>","null","html-keyboard-response","160","404373","0.0-32.0-2.14","","","fixation_2","","","","","",""
"null","img_4.bmp","null","image-keyboard-response","161","405379","0.0-32.0-3.14","","","img_on","","","","","",""
"null","<div style=""font-size:60px;""> </div>","null","html-keyboard-response","162","405685","0.0-32.0-4.14","","","fixation_3","","","","","",""
"null","","null","html-keyboard-response","163","405690","0.0-32.0-5.14","","","test","leftarrow","0","1","FALSE","FALSE",""
"null","<div style=""font-size:60px;""> </div>","null","html-keyboard-response","164","405994","0.0-32.0-6.14","","","fixation_4","","","","","",""
"378.30000019073486","arrows.png","37","image-keyboard-response","165","406374","0.0-32.0-7.14","","","test","leftarrow","0","1","FALSE","FALSE","true"
"null","<p style=""color: green; font-size:300%;"">correct: $2.50</p>","null","html-keyboard-response","166","407631","0.0-32.0-8.14","","","","","","","","",""
"null","<div style=""font-size:60px;""> </div>","null","html-keyboard-response","167","408938","0.0-32.0-0.15","","","fixation_1","","","","","",""
"null","","null","image-keyboard-response","168","408944","0.0-32.0-1.15","","","test","uparrow","1","1","FALSE","FALSE",""
"null","<div style=""font-size:60px;""> </div>","null","html-keyboard-response","169","409247","0.0-32.0-2.15","","","fixation_2","","","","","",""
"null","img_1.bmp","null","image-keyboard-response","170","410254","0.0-32.0-3.15","","","img_on","","","","","",""
"null","<div style=""font-size:60px;""> </div>","null","html-keyboard-response","171","410558","0.0-32.0-4.15","","","fixation_3","","","","","",""
"null","","null","html-keyboard-response","172","410563","0.0-32.0-5.15","","","test","uparrow","1","1","FALSE","FALSE",""
"null","<div style=""font-size:60px;""> </div>","null","html-keyboard-response","173","410868","0.0-32.0-6.15","","","fixation_4","","","","","",""
"112.09999990463257","arrows.png","38","image-keyboard-response","174","410982","0.0-32.0-7.15","","","test","uparrow","1","1","FALSE","FALSE","true"
"null","<p style=""color: green; font-size:300%;"">correct: $7.50</p>","null","html-keyboard-response","175","412245","0.0-32.0-8.15","","","","","","","","",""
"null","<div style=""font-size:60px;""> </div>","null","html-keyboard-response","176","413055","0.0-32.0-0.16","","","fixation_1","","","","","",""
"null","","null","image-keyboard-response","177","413061","0.0-32.0-1.16","","","test","uparrow","1","1","FALSE","FALSE",""
"null","<div style=""font-size:60px;""> </div>","null","html-keyboard-response","178","413367","0.0-32.0-2.16","","","fixation_2","","","","","",""
"null","img_1.bmp","null","image-keyboard-response","179","414373","0.0-32.0-3.16","","","img_on","","","","","",""
"null","<div style=""font-size:60px;""> </div>","null","html-keyboard-response","180","414676","0.0-32.0-4.16","","","fixation_3","","","","","",""
"null","","null","html-keyboard-response","181","414682","0.0-32.0-5.16","","","test","uparrow","1","1","FALSE","FALSE",""
"null","<div style=""font-size:60px;""> </div>","null","html-keyboard-response","182","414986","0.0-32.0-6.16","","","fixation_4","","","","","",""
"112.59999990463257","arrows.png","38","image-keyboard-response","183","415100","0.0-32.0-7.16","","","test","uparrow","1","1","FALSE","FALSE","true"
"null","<p style=""color: green; font-size:300%;"">correct: $7.50</p>","null","html-keyboard-response","184","416356","0.0-32.0-8.16","","","","","","","","",""
"null","<div style=""font-size:60px;""> </div>","null","html-keyboard-response","185","417663","0.0-32.0-0.17","","","fixation_1","","","","","",""
"null","","null","image-keyboard-response","186","417670","0.0-32.0-1.17","","","test","rightarrow","1","1","FALSE","FALSE",""
"null","<div style=""font-size:60px;""> </div>","null","html-keyboard-response","187","417972","0.0-32.0-2.17","","","fixation_2","","","","","",""
"null","img_2.bmp","null","image-keyboard-response","188","418979","0.0-32.0-3.17","","","img_on","","","","","",""
"null","<div style=""font-size:60px;""> </div>","null","html-keyboard-response","189","419284","0.0-32.0-4.17","","","fixation_3","","","","","",""
"null","","null","html-keyboard-response","190","419290","0.0-32.0-5.17","","","test","rightarrow","1","1","FALSE","FALSE",""
"null","<div style=""font-size:60px;""> </div>","null","html-keyboard-response","191","419594","0.0-32.0-6.17","","","fixation_4","","","","","",""
"321.7000002861023","arrows.png","39","image-keyboard-response","192","419918","0.0-32.0-7.17","","","test","rightarrow","1","1","FALSE","FALSE","true"
"null","<p style=""color: green; font-size:300%;"">correct: $7.50</p>","null","html-keyboard-response","193","421173","0.0-32.0-8.17","","","","","","","","",""
"null","<div style=""font-size:60px;""> </div>","null","html-keyboard-response","194","422234","0.0-32.0-0.18","","","fixation_1","","","","","",""
"null","","null","image-keyboard-response","195","422240","0.0-32.0-1.18","","","test","leftarrow","0","1","FALSE","FALSE",""
"null","<div style=""font-size:60px;""> </div>","null","html-keyboard-response","196","422543","0.0-32.0-2.18","","","fixation_2","","","","","",""
"null","img_4.bmp","null","image-keyboard-response","197","423550","0.0-32.0-3.18","","","img_on","","","","","",""
"null","<div style=""font-size:60px;""> </div>","null","html-keyboard-response","198","423855","0.0-32.0-4.18","","","fixation_3","","","","","",""
"null","","null","html-keyboard-response","199","423861","0.0-32.0-5.18","","","test","leftarrow","0","1","FALSE","FALSE",""
"null","<div style=""font-size:60px;""> </div>","null","html-keyboard-response","200","424164","0.0-32.0-6.18","","","fixation_4","","","","","",""
"386.59999990463257","arrows.png","37","image-keyboard-response","201","424553","0.0-32.0-7.18","","","test","leftarrow","0","1","FALSE","FALSE","true"
"null","<p style=""color: green; font-size:300%;"">correct: $2.50</p>","null","html-keyboard-response","202","425813","0.0-32.0-8.18","","","","","","","","",""
"null","<div style=""font-size:60px;""> </div>","null","html-keyboard-response","203","426623","0.0-32.0-0.19","","","fixation_1","","","","","",""
"null","switch_cue.png","null","image-keyboard-response","204","427630","0.0-32.0-1.19","","","test","downarrow","0","1","TRUE","TRUE",""
"null","<div style=""font-size:60px;""> </div>","null","html-keyboard-response","205","427935","0.0-32.0-2.19","","","fixation_2","","","","","",""
"null","img_3.bmp","null","image-keyboard-response","206","428942","0.0-32.0-3.19","","","img_on","","","","","",""
"null","<div style=""font-size:60px;""> </div>","null","html-keyboard-response","207","429247","0.0-32.0-4.19","","","fixation_3","","","","","",""
"null","<img src=""CC1.png"" width=200 height=200/>","null","html-keyboard-response","208","430250","0.0-32.0-5.19","","","test","downarrow","0","1","TRUE","TRUE",""
"null","<div style=""font-size:60px;""> </div>","null","html-keyboard-response","209","430554","0.0-32.0-6.19","","","fixation_4","","","","","",""
"739","arrows.png","38","image-keyboard-response","210","431295","0.0-32.0-7.19","","","test","downarrow","0","1","TRUE","TRUE","false"
"null","<p style=""color: red; font-size:300%;"">incorrect: $0</p>","null","html-keyboard-response","211","432554","0.0-32.0-8.19","","","","","","","","",""
"null","<div style=""font-size:60px;""> </div>","null","html-keyboard-response","212","433610","0.0-32.0-0.20","","","fixation_1","","","","","",""
"null","switch_cue.png","null","image-keyboard-response","213","434618","0.0-32.0-1.20","","","test","uparrow","0","2","TRUE","TRUE",""
"null","<div style=""font-size:60px;""> </div>","null","html-keyboard-response","214","434922","0.0-32.0-2.20","","","fixation_2","","","","","",""
"null","img_4.bmp","null","image-keyboard-response","215","435928","0.0-32.0-3.20","","","img_on","","","","","",""
"null","<div style=""font-size:60px;""> </div>","null","html-keyboard-response","216","436234","0.0-32.0-4.20","","","fixation_3","","","","","",""
"null","<img src=""CC2.png"" width=200 height=200/>","null","html-keyboard-response","217","437240","0.0-32.0-5.20","","","test","uparrow","0","2","TRUE","TRUE",""
"null","<div style=""font-size:60px;""> </div>","null","html-keyboard-response","218","437546","0.0-32.0-6.20","","","fixation_4","","","","","",""
"379.69999980926514","arrows.png","37","image-keyboard-response","219","437928","0.0-32.0-7.20","","","test","uparrow","0","2","TRUE","TRUE","false"
"null","<p style=""color: red; font-size:300%;"">incorrect: $0</p>","null","html-keyboard-response","220","439183","0.0-32.0-8.20","","","","","","","","",""
"null","<div style=""font-size:60px;""> </div>","null","html-keyboard-response","221","440240","0.0-32.0-0.21","","","fixation_1","","","","","",""
"null","","null","image-keyboard-response","222","440246","0.0-32.0-1.21","","","test","downarrow","1","2","TRUE","FALSE",""
"null","<div style=""font-size:60px;""> </div>","null","html-keyboard-response","223","440548","0.0-32.0-2.21","","","fixation_2","","","","","",""
"null","img_2.bmp","null","image-keyboard-response","224","441551","0.0-32.0-3.21","","","img_on","","","","","",""
"null","<div style=""font-size:60px;""> </div>","null","html-keyboard-response","225","441855","0.0-32.0-4.21","","","fixation_3","","","","","",""
"null","<img src=""CC2.png"" width=200 height=200/>","null","html-keyboard-response","226","442862","0.0-32.0-5.21","","","test","downarrow","1","2","TRUE","FALSE",""
"null","<div style=""font-size:60px;""> </div>","null","html-keyboard-response","227","443167","0.0-32.0-6.21","","","fixation_4","","","","","",""
"388.7000002861023","arrows.png","40","image-keyboard-response","228","443557","0.0-32.0-7.21","","","test","downarrow","1","2","TRUE","FALSE","true"
"null","<p style=""color: green; font-size:300%;"">correct: $7.50</p>","null","html-keyboard-response","229","444815","0.0-32.0-8.21","","","","","","","","",""
"null","<div style=""font-size:60px;""> </div>","null","html-keyboard-response","230","445375","0.0-32.0-0.22","","","fixation_1","","","","","",""
"null","","null","image-keyboard-response","231","445381","0.0-32.0-1.22","","","test","leftarrow","1","2","TRUE","FALSE",""
"null","<div style=""font-size:60px;""> </div>","null","html-keyboard-response","232","445684","0.0-32.0-2.22","","","fixation_2","","","","","",""
"null","img_3.bmp","null","image-keyboard-response","233","446691","0.0-32.0-3.22","","","img_on","","","","","",""
"null","<div style=""font-size:60px;""> </div>","null","html-keyboard-response","234","446996","0.0-32.0-4.22","","","fixation_3","","","","","",""
"null","<img src=""CC2.png"" width=200 height=200/>","null","html-keyboard-response","235","448003","0.0-32.0-5.22","","","test","leftarrow","1","2","TRUE","FALSE",""
"null","<div style=""font-size:60px;""> </div>","null","html-keyboard-response","236","448308","0.0-32.0-6.22","","","fixation_4","","","","","",""
"459.40000009536743","arrows.png","39","image-keyboard-response","237","448770","0.0-32.0-7.22","","","test","leftarrow","1","2","TRUE","FALSE","false"
"null","<p style=""color: red; font-size:300%;"">incorrect: $0</p>","null","html-keyboard-response","238","450025","0.0-32.0-8.22","","","","","","","","",""
"null","<div style=""font-size:60px;""> </div>","null","html-keyboard-response","239","451082","0.0-32.0-0.23","","","fixation_1","","","","","",""
"null","","null","image-keyboard-response","240","451088","0.0-32.0-1.23","","","test","rightarrow","0","2","TRUE","FALSE",""
"null","<div style=""font-size:60px;""> </div>","null","html-keyboard-response","241","451391","0.0-32.0-2.23","","","fixation_2","","","","","",""
"null","img_1.bmp","null","image-keyboard-response","242","452398","0.0-32.0-3.23","","","img_on","","","","","",""
"null","<div style=""font-size:60px;""> </div>","null","html-keyboard-response","243","452703","0.0-32.0-4.23","","","fixation_3","","","","","",""
"null","<img src=""CC2.png"" width=200 height=200/>","null","html-keyboard-response","244","453710","0.0-32.0-5.23","","","test","rightarrow","0","2","TRUE","FALSE",""
"null","<div style=""font-size:60px;""> </div>","null","html-keyboard-response","245","454015","0.0-32.0-6.23","","","fixation_4","","","","","",""
"389","arrows.png","37","image-keyboard-response","246","454405","0.0-32.0-7.23","","","test","rightarrow","0","2","TRUE","FALSE","false"
"null","<p style=""color: red; font-size:300%;"">incorrect: $0</p>","null","html-keyboard-response","247","455662","0.0-32.0-8.23","","","","","","","","",""
"null","<div style=""font-size:60px;""> </div>","null","html-keyboard-response","248","457219","0.0-32.0-0.24","","","fixation_1","","","","","",""
"null","","null","image-keyboard-response","249","457225","0.0-32.0-1.24","","","test","leftarrow","1","2","FALSE","FALSE",""
"null","<div style=""font-size:60px;""> </div>","null","html-keyboard-response","250","457529","0.0-32.0-2.24","","","fixation_2","","","","","",""
"null","img_3.bmp","null","image-keyboard-response","251","458532","0.0-32.0-3.24","","","img_on","","","","","",""
"null","<div style=""font-size:60px;""> </div>","null","html-keyboard-response","252","458836","0.0-32.0-4.24","","","fixation_3","","","","","",""
"null","","null","html-keyboard-response","253","458842","0.0-32.0-5.24","","","test","leftarrow","1","2","FALSE","FALSE",""
"null","<div style=""font-size:60px;""> </div>","null","html-keyboard-response","254","459146","0.0-32.0-6.24","","","fixation_4","","","","","",""
"1556.4000000953674","arrows.png","38","image-keyboard-response","255","460704","0.0-32.0-7.24","","","test","leftarrow","1","2","FALSE","FALSE","false"
"null","<p style=""color: red; font-size:300%;"">incorrect: $0</p>","null","html-keyboard-response","256","461961","0.0-32.0-8.24","","","","","","","","",""
"null","<div style=""font-size:60px;""> </div>","null","html-keyboard-response","257","463017","0.0-32.0-0.25","","","fixation_1","","","","","",""
"null","","null","image-keyboard-response","258","463024","0.0-32.0-1.25","","","test","downarrow","1","2","FALSE","FALSE",""
"null","<div style=""font-size:60px;""> </div>","null","html-keyboard-response","259","463327","0.0-32.0-2.25","","","fixation_2","","","","","",""
"null","img_2.bmp","null","image-keyboard-response","260","464333","0.0-32.0-3.25","","","img_on","","","","","",""
"null","<div style=""font-size:60px;""> </div>","null","html-keyboard-response","261","464639","0.0-32.0-4.25","","","fixation_3","","","","","",""
"null","","null","html-keyboard-response","262","464645","0.0-32.0-5.25","","","test","downarrow","1","2","FALSE","FALSE",""
"null","<div style=""font-size:60px;""> </div>","null","html-keyboard-response","263","464948","0.0-32.0-6.25","","","fixation_4","","","","","",""
"833.7000002861023","arrows.png","40","image-keyboard-response","264","465783","0.0-32.0-7.25","","","test","downarrow","1","2","FALSE","FALSE","true"
"null","<p style=""color: green; font-size:300%;"">correct: $7.50</p>","null","html-keyboard-response","265","467041","0.0-32.0-8.25","","","","","","","","",""
"null","<div style=""font-size:60px;""> </div>","null","html-keyboard-response","266","468100","0.0-32.0-0.26","","","fixation_1","","","","","",""
"null","","null","image-keyboard-response","267","468106","0.0-32.0-1.26","","","test","uparrow","0","2","FALSE","FALSE",""
"null","<div style=""font-size:60px;""> </div>","null","html-keyboard-response","268","468410","0.0-32.0-2.26","","","fixation_2","","","","","",""
"null","img_4.bmp","null","image-keyboard-response","269","469416","0.0-32.0-3.26","","","img_on","","","","","",""
"null","<div style=""font-size:60px;""> </div>","null","html-keyboard-response","270","469722","0.0-32.0-4.26","","","fixation_3","","","","","",""
"null","","null","html-keyboard-response","271","469727","0.0-32.0-5.26","","","test","uparrow","0","2","FALSE","FALSE",""
"null","<div style=""font-size:60px;""> </div>","null","html-keyboard-response","272","470031","0.0-32.0-6.26","","","fixation_4","","","","","",""
"464.09999990463257","arrows.png","39","image-keyboard-response","273","470497","0.0-32.0-7.26","","","test","uparrow","0","2","FALSE","FALSE","false"
"null","<p style=""color: red; font-size:300%;"">incorrect: $0</p>","null","html-keyboard-response","274","471753","0.0-32.0-8.26","","","","","","","","",""
"null","<div style=""font-size:60px;""> </div>","null","html-keyboard-response","275","472314","0.0-32.0-0.27","","","fixation_1","","","","","",""
"null","","null","image-keyboard-response","276","472320","0.0-32.0-1.27","","","test","rightarrow","0","2","FALSE","FALSE",""
"null","<div style=""font-size:60px;""> </div>","null","html-keyboard-response","277","472623","0.0-32.0-2.27","","","fixation_2","","","","","",""
"null","img_1.bmp","null","image-keyboard-response","278","473630","0.0-32.0-3.27","","","img_on","","","","","",""
"null","<div style=""font-size:60px;""> </div>","null","html-keyboard-response","279","473935","0.0-32.0-4.27","","","fixation_3","","","","","",""
"null","","null","html-keyboard-response","280","473941","0.0-32.0-5.27","","","test","rightarrow","0","2","FALSE","FALSE",""
"null","<div style=""font-size:60px;""> </div>","null","html-keyboard-response","281","474244","0.0-32.0-6.27","","","fixation_4","","","","","",""
"524","arrows.png","37","image-keyboard-response","282","474770","0.0-32.0-7.27","","","test","rightarrow","0","2","FALSE","FALSE","false"
"null","<p style=""color: red; font-size:300%;"">incorrect: $0</p>","null","html-keyboard-response","283","476025","0.0-32.0-8.27","","","","","","","","",""
"null","<div style=""font-size:60px;""> </div>","null","html-keyboard-response","284","476585","0.0-32.0-0.28","","","fixation_1","","","","","",""
"null","","null","image-keyboard-response","285","476592","0.0-32.0-1.28","","","test","uparrow","0","2","FALSE","FALSE",""
"null","<div style=""font-size:60px;""> </div>","null","html-keyboard-response","286","476895","0.0-32.0-2.28","","","fixation_2","","","","","",""
"null","img_4.bmp","null","image-keyboard-response","287","477902","0.0-32.0-3.28","","","img_on","","","","","",""
"null","<div style=""font-size:60px;""> </div>","null","html-keyboard-response","288","478207","0.0-32.0-4.28","","","fixation_3","","","","","",""
"null","","null","html-keyboard-response","289","478213","0.0-32.0-5.28","","","test","uparrow","0","2","FALSE","FALSE",""
"null","<div style=""font-size:60px;""> </div>","null","html-keyboard-response","290","478516","0.0-32.0-6.28","","","fixation_4","","","","","",""
"479.2000002861023","arrows.png","39","image-keyboard-response","291","478997","0.0-32.0-7.28","","","test","uparrow","0","2","FALSE","FALSE","false"
"null","<p style=""color: red; font-size:300%;"">incorrect: $0</p>","null","html-keyboard-response","292","480255","0.0-32.0-8.28","","","","","","","","",""
"null","<div style=""font-size:60px;""> </div>","null","html-keyboard-response","293","481561","0.0-32.0-0.29","","","fixation_1","","","","","",""
"null","","null","image-keyboard-response","294","481567","0.0-32.0-1.29","","","test","rightarrow","0","2","FALSE","FALSE",""
"null","<div style=""font-size:60px;""> </div>","null","html-keyboard-response","295","481870","0.0-32.0-2.29","","","fixation_2","","","","","",""
"null","img_1.bmp","null","image-keyboard-response","296","482873","0.0-32.0-3.29","","","img_on","","","","","",""
"null","<div style=""font-size:60px;""> </div>","null","html-keyboard-response","297","483177","0.0-32.0-4.29","","","fixation_3","","","","","",""
"null","","null","html-keyboard-response","298","483183","0.0-32.0-5.29","","","test","rightarrow","0","2","FALSE","FALSE",""
"null","<div style=""font-size:60px;""> </div>","null","html-keyboard-response","299","483487","0.0-32.0-6.29","","","fixation_4","","","","","",""
"362.5","arrows.png","38","image-keyboard-response","300","483851","0.0-32.0-7.29","","","test","rightarrow","0","2","FALSE","FALSE","false"
"null","<p style=""color: red; font-size:300%;"">incorrect: $0</p>","null","html-keyboard-response","301","485108","0.0-32.0-8.29","","","","","","","","",""
"null","<div style=""font-size:60px;""> </div>","null","html-keyboard-response","302","485919","0.0-32.0-0.30","","","fixation_1","","","","","",""
"null","","null","image-keyboard-response","303","485925","0.0-32.0-1.30","","","test","downarrow","1","2","FALSE","FALSE",""
"null","<div style=""font-size:60px;""> </div>","null","html-keyboard-response","304","486228","0.0-32.0-2.30","","","fixation_2","","","","","",""
"null","img_2.bmp","null","image-keyboard-response","305","487235","0.0-32.0-3.30","","","img_on","","","","","",""
"null","<div style=""font-size:60px;""> </div>","null","html-keyboard-response","306","487540","0.0-32.0-4.30","","","fixation_3","","","","","",""
"null","","null","html-keyboard-response","307","487546","0.0-32.0-5.30","","","test","downarrow","1","2","FALSE","FALSE",""
"null","<div style=""font-size:60px;""> </div>","null","html-keyboard-response","308","487849","0.0-32.0-6.30","","","fixation_4","","","","","",""
"395.30000019073486","arrows.png","40","image-keyboard-response","309","488247","0.0-32.0-7.30","","","test","downarrow","1","2","FALSE","FALSE","true"
"null","<p style=""color: green; font-size:300%;"">correct: $7.50</p>","null","html-keyboard-response","310","489506","0.0-32.0-8.30","","","","","","","","",""
"null","<div style=""font-size:60px;""> </div>","null","html-keyboard-response","311","490313","0.0-32.0-0.31","","","fixation_1","","","","","",""
"null","","null","image-keyboard-response","312","490319","0.0-32.0-1.31","","","test","leftarrow","1","2","FALSE","FALSE",""
"null","<div style=""font-size:60px;""> </div>","null","html-keyboard-response","313","490623","0.0-32.0-2.31","","","fixation_2","","","","","",""
"null","img_3.bmp","null","image-keyboard-response","314","491629","0.0-32.0-3.31","","","img_on","","","","","",""
"null","<div style=""font-size:60px;""> </div>","null","html-keyboard-response","315","491935","0.0-32.0-4.31","","","fixation_3","","","","","",""
"null","","null","html-keyboard-response","316","491941","0.0-32.0-5.31","","","test","leftarrow","1","2","FALSE","FALSE",""
"null","<div style=""font-size:60px;""> </div>","null","html-keyboard-response","317","492244","0.0-32.0-6.31","","","fixation_4","","","","","",""
"394.30000019073486","arrows.png","37","image-keyboard-response","318","492640","0.0-32.0-7.31","","","test","leftarrow","1","2","FALSE","FALSE","true"
"null","<p style=""color: green; font-size:300%;"">correct: $7.50</p>","null","html-keyboard-response","319","493897","0.0-32.0-8.31","","","","","","","","",""
"null","<div style=""font-size:60px;""> </div>","null","html-keyboard-response","320","494457","0.0-32.0-0.32","","","fixation_1","","","","","",""
"null","","null","image-keyboard-response","321","494463","0.0-32.0-1.32","","","test","downarrow","1","2","FALSE","FALSE",""
"null","<div style=""font-size:60px;""> </div>","null","html-keyboard-response","322","494768","0.0-32.0-2.32","","","fixation_2","","","","","",""
"null","img_2.bmp","null","image-keyboard-response","323","495775","0.0-32.0-3.32","","","img_on","","","","","",""
"null","<div style=""font-size:60px;""> </div>","null","html-keyboard-response","324","496079","0.0-32.0-4.32","","","fixation_3","","","","","",""
"null","","null","html-keyboard-response","325","496084","0.0-32.0-5.32","","","test","downarrow","1","2","FALSE","FALSE",""
"null","<div style=""font-size:60px;""> </div>","null","html-keyboard-response","326","496388","0.0-32.0-6.32","","","fixation_4","","","","","",""
"409.2000002861023","arrows.png","40","image-keyboard-response","327","496799","0.0-32.0-7.32","","","test","downarrow","1","2","FALSE","FALSE","true"
"null","<p style=""color: green; font-size:300%;"">correct: $7.50</p>","null","html-keyboard-response","328","498061","0.0-32.0-8.32","","","","","","","","",""
"null","<div style=""font-size:60px;""> </div>","null","html-keyboard-response","329","499119","0.0-32.0-0.33","","","fixation_1","","","","","",""
"null","","null","image-keyboard-response","330","499125","0.0-32.0-1.33","","","test","leftarrow","1","2","FALSE","FALSE",""
"null","<div style=""font-size:60px;""> </div>","null","html-keyboard-response","331","499428","0.0-32.0-2.33","","","fixation_2","","","","","",""
"null","img_3.bmp","null","image-keyboard-response","332","500434","0.0-32.0-3.33","","","img_on","","","","","",""
"null","<div style=""font-size:60px;""> </div>","null","html-keyboard-response","333","500740","0.0-32.0-4.33","","","fixation_3","","","","","",""
"null","","null","html-keyboard-response","334","500746","0.0-32.0-5.33","","","test","leftarrow","1","2","FALSE","FALSE",""
"null","<div style=""font-size:60px;""> </div>","null","html-keyboard-response","335","501049","0.0-32.0-6.33","","","fixation_4","","","","","",""
"396.2999997138977","arrows.png","37","image-keyboard-response","336","501448","0.0-32.0-7.33","","","test","leftarrow","1","2","FALSE","FALSE","true"
"null","<p style=""color: green; font-size:300%;"">correct: $7.50</p>","null","html-keyboard-response","337","502702","0.0-32.0-8.33","","","","","","","","",""
"null","<div style=""font-size:60px;""> </div>","null","html-keyboard-response","338","503513","0.0-32.0-0.34","","","fixation_1","","","","","",""
"null","","null","image-keyboard-response","339","503519","0.0-32.0-1.34","","","test","rightarrow","0","2","FALSE","FALSE",""
"null","<div style=""font-size:60px;""> </div>","null","html-keyboard-response","340","503823","0.0-32.0-2.34","","","fixation_2","","","","","",""
"null","img_1.bmp","null","image-keyboard-response","341","504829","0.0-32.0-3.34","","","img_on","","","","","",""
"null","<div style=""font-size:60px;""> </div>","null","html-keyboard-response","342","505135","0.0-32.0-4.34","","","fixation_3","","","","","",""
"null","","null","html-keyboard-response","343","505140","0.0-32.0-5.34","","","test","rightarrow","0","2","FALSE","FALSE",""
"null","<div style=""font-size:60px;""> </div>","null","html-keyboard-response","344","505444","0.0-32.0-6.34","","","fixation_4","","","","","",""
"534.5","arrows.png","38","image-keyboard-response","345","505980","0.0-32.0-7.34","","","test","rightarrow","0","2","FALSE","FALSE","false"
"null","<p style=""color: red; font-size:300%;"">incorrect: $0</p>","null","html-keyboard-response","346","507236","0.0-32.0-8.34","","","","","","","","",""
"null","<div style=""font-size:60px;""> </div>","null","html-keyboard-response","347","508047","0.0-32.0-0.35","","","fixation_1","","","","","",""
"null","","null","image-keyboard-response","348","508053","0.0-32.0-1.35","","","test","uparrow","0","2","FALSE","FALSE",""
"null","<div style=""font-size:60px;""> </div>","null","html-keyboard-response","349","508356","0.0-32.0-2.35","","","fixation_2","","","","","",""
"null","img_4.bmp","null","image-keyboard-response","350","509363","0.0-32.0-3.35","","","img_on","","","","","",""
"null","<div style=""font-size:60px;""> </div>","null","html-keyboard-response","351","509668","0.0-32.0-4.35","","","fixation_3","","","","","",""
"null","","null","html-keyboard-response","352","509674","0.0-32.0-5.35","","","test","uparrow","0","2","FALSE","FALSE",""
"null","<div style=""font-size:60px;""> </div>","null","html-keyboard-response","353","509977","0.0-32.0-6.35","","","fixation_4","","","","","",""
"353.90000009536743","arrows.png","38","image-keyboard-response","354","510334","0.0-32.0-7.35","","","test","uparrow","0","2","FALSE","FALSE","true"
"null","<p style=""color: green; font-size:300%;"">correct: $2.50</p>","null","html-keyboard-response","355","511593","0.0-32.0-8.35","","","","","","","","",""
"null","<div style=""font-size:60px;""> </div>","null","html-keyboard-response","356","512404","0.0-32.0-0.36","","","fixation_1","","","","","",""
"null","","null","image-keyboard-response","357","512410","0.0-32.0-1.36","","","test","downarrow","1","2","FALSE","FALSE",""
"null","<div style=""font-size:60px;""> </div>","null","html-keyboard-response","358","512713","0.0-32.0-2.36","","","fixation_2","","","","","",""
"null","img_2.bmp","null","image-keyboard-response","359","513720","0.0-32.0-3.36","","","img_on","","","","","",""
"null","<div style=""font-size:60px;""> </div>","null","html-keyboard-response","360","514024","0.0-32.0-4.36","","","fixation_3","","","","","",""
"null","","null","html-keyboard-response","361","514030","0.0-32.0-5.36","","","test","downarrow","1","2","FALSE","FALSE",""
"null","<div style=""font-size:60px;""> </div>","null","html-keyboard-response","362","514334","0.0-32.0-6.36","","","fixation_4","","","","","",""
"383.7000002861023","arrows.png","40","image-keyboard-response","363","514718","0.0-32.0-7.36","","","test","downarrow","1","2","FALSE","FALSE","true"
"null","<p style=""color: green; font-size:300%;"">correct: $7.50</p>","null","html-keyboard-response","364","515976","0.0-32.0-8.36","","","","","","","","",""
"null","<div style=""font-size:60px;""> </div>","null","html-keyboard-response","365","516786","0.0-32.0-0.37","","","fixation_1","","","","","",""
"null","","null","image-keyboard-response","366","516791","0.0-32.0-1.37","","","test","rightarrow","0","2","FALSE","FALSE",""
"null","<div style=""font-size:60px;""> </div>","null","html-keyboard-response","367","517097","0.0-32.0-2.37","","","fixation_2","","","","","",""
"null","img_1.bmp","null","image-keyboard-response","368","518104","0.0-32.0-3.37","","","img_on","","","","","",""
"null","<div style=""font-size:60px;""> </div>","null","html-keyboard-response","369","518409","0.0-32.0-4.37","","","fixation_3","","","","","",""
"null","","null","html-keyboard-response","370","518414","0.0-32.0-5.37","","","test","rightarrow","0","2","FALSE","FALSE",""
"null","<div style=""font-size:60px;""> </div>","null","html-keyboard-response","371","518718","0.0-32.0-6.37","","","fixation_4","","","","","",""
"359.7999997138977","arrows.png","39","image-keyboard-response","372","519080","0.0-32.0-7.37","","","test","rightarrow","0","2","FALSE","FALSE","true"
"null","<p style=""color: green; font-size:300%;"">correct: $2.50</p>","null","html-keyboard-response","373","520340","0.0-32.0-8.37","","","","","","","","",""
"null","<div style=""font-size:60px;""> </div>","null","html-keyboard-response","374","521652","0.0-32.0-0.38","","","fixation_1","","","","","",""
"null","","null","image-keyboard-response","375","521657","0.0-32.0-1.38","","","test","uparrow","0","2","FALSE","FALSE",""
"null","<div style=""font-size:60px;""> </div>","null","html-keyboard-response","376","521961","0.0-32.0-2.38","","","fixation_2","","","","","",""
"null","img_4.bmp","null","image-keyboard-response","377","522968","0.0-32.0-3.38","","","img_on","","","","","",""
"null","<div style=""font-size:60px;""> </div>","null","html-keyboard-response","378","523273","0.0-32.0-4.38","","","fixation_3","","","","","",""
"null","","null","html-keyboard-response","379","523279","0.0-32.0-5.38","","","test","uparrow","0","2","FALSE","FALSE",""
"null","<div style=""font-size:60px;""> </div>","null","html-keyboard-response","380","523582","0.0-32.0-6.38","","","fixation_4","","","","","",""
"438.5","arrows.png","37","image-keyboard-response","381","524023","0.0-32.0-7.38","","","test","uparrow","0","2","FALSE","FALSE","false"
"null","<p style=""color: red; font-size:300%;"">incorrect: $0</p>","null","html-keyboard-response","382","525278","0.0-32.0-8.38","","","","","","","","",""
"null","<div style=""font-size:60px;""> </div>","null","html-keyboard-response","383","526334","0.0-32.0-0.39","","","fixation_1","","","","","",""
"null","switch_cue.png","null","image-keyboard-response","384","527340","0.0-32.0-1.39","","","test","leftarrow","1","2","TRUE","TRUE",""
"null","<div style=""font-size:60px;""> </div>","null","html-keyboard-response","385","527644","0.0-32.0-2.39","","","fixation_2","","","","","",""
"null","img_3.bmp","null","image-keyboard-response","386","528649","0.0-32.0-3.39","","","img_on","","","","","",""
"null","<div style=""font-size:60px;""> </div>","null","html-keyboard-response","387","528953","0.0-32.0-4.39","","","fixation_3","","","","","",""
"null","<img src=""CC2.png"" width=200 height=200/>","null","html-keyboard-response","388","529960","0.0-32.0-5.39","","","test","leftarrow","1","2","TRUE","TRUE",""
"null","<div style=""font-size:60px;""> </div>","null","html-keyboard-response","389","530265","0.0-32.0-6.39","","","fixation_4","","","","","",""
"64.39999961853027","arrows.png","38","image-keyboard-response","390","530333","0.0-32.0-7.39","","","test","leftarrow","1","2","TRUE","TRUE","false"
"null","<p style=""color: red; font-size:300%;"">incorrect: $0</p>","null","html-keyboard-response","391","531588","0.0-32.0-8.39","","","","","","","","",""
"null","<div style=""font-size:60px;""> </div>","null","html-keyboard-response","392","532398","0.0-32.0-0.40","","","fixation_1","","","","","",""
"null","switch_cue.png","null","image-keyboard-response","393","533405","0.0-32.0-1.40","","","test","downarrow","0","1","TRUE","TRUE",""
"null","<div style=""font-size:60px;""> </div>","null","html-keyboard-response","394","533710","0.0-32.0-2.40","","","fixation_2","","","","","",""
"null","img_3.bmp","null","image-keyboard-response","395","534717","0.0-32.0-3.40","","","img_on","","","","","",""
"null","<div style=""font-size:60px;""> </div>","null","html-keyboard-response","396","535022","0.0-32.0-4.40","","","fixation_3","","","","","",""
"null","<img src=""CC1.png"" width=200 height=200/>","null","html-keyboard-response","397","536029","0.0-32.0-5.40","","","test","downarrow","0","1","TRUE","TRUE",""
"null","<div style=""font-size:60px;""> </div>","null","html-keyboard-response","398","536331","0.0-32.0-6.40","","","fixation_4","","","","","",""
"491.19999980926514","arrows.png","37","image-keyboard-response","399","536825","0.0-32.0-7.40","","","test","downarrow","0","1","TRUE","TRUE","false"
"null","<p style=""color: red; font-size:300%;"">incorrect: $0</p>","null","html-keyboard-response","400","538084","0.0-32.0-8.40","","","","","","","","",""
"null","<div style=""font-size:60px;""> </div>","null","html-keyboard-response","401","538644","0.0-32.0-0.41","","","fixation_1","","","","","",""
"null","","null","image-keyboard-response","402","538650","0.0-32.0-1.41","","","test","uparrow","1","1","TRUE","FALSE",""
"null","<div style=""font-size:60px;""> </div>","null","html-keyboard-response","403","538956","0.0-32.0-2.41","","","fixation_2","","","","","",""
"null","img_1.bmp","null","image-keyboard-response","404","539961","0.0-32.0-3.41","","","img_on","","","","","",""
"null","<div style=""font-size:60px;""> </div>","null","html-keyboard-response","405","540265","0.0-32.0-4.41","","","fixation_3","","","","","",""
"null","<img src=""CC1.png"" width=200 height=200/>","null","html-keyboard-response","406","541272","0.0-32.0-5.41","","","test","uparrow","1","1","TRUE","FALSE",""
"null","<div style=""font-size:60px;""> </div>","null","html-keyboard-response","407","541577","0.0-32.0-6.41","","","fixation_4","","","","","",""
"420.2999997138977","arrows.png","40","image-keyboard-response","408","542000","0.0-32.0-7.41","","","test","uparrow","1","1","TRUE","FALSE","false"
"null","<p style=""color: red; font-size:300%;"">incorrect: $0</p>","null","html-keyboard-response","409","543257","0.0-32.0-8.41","","","","","","","","",""
"null","<div style=""font-size:60px;""> </div>","null","html-keyboard-response","410","544318","0.0-32.0-0.42","","","fixation_1","","","","","",""
"null","","null","image-keyboard-response","411","544325","0.0-32.0-1.42","","","test","rightarrow","1","1","TRUE","FALSE",""
"null","<div style=""font-size:60px;""> </div>","null","html-keyboard-response","412","544627","0.0-32.0-2.42","","","fixation_2","","","","","",""
"null","img_2.bmp","null","image-keyboard-response","413","545635","0.0-32.0-3.42","","","img_on","","","","","",""
"null","<div style=""font-size:60px;""> </div>","null","html-keyboard-response","414","545940","0.0-32.0-4.42","","","fixation_3","","","","","",""
"null","<img src=""CC1.png"" width=200 height=200/>","null","html-keyboard-response","415","546946","0.0-32.0-5.42","","","test","rightarrow","1","1","TRUE","FALSE",""
"null","<div style=""font-size:60px;""> </div>","null","html-keyboard-response","416","547252","0.0-32.0-6.42","","","fixation_4","","","","","",""
"333.40000009536743","arrows.png","40","image-keyboard-response","417","547587","0.0-32.0-7.42","","","test","rightarrow","1","1","TRUE","FALSE","false"
"null","<p style=""color: red; font-size:300%;"">incorrect: $0</p>","null","html-keyboard-response","418","548846","0.0-32.0-8.42","","","","","","","","",""
"null","<div style=""font-size:60px;""> </div>","null","html-keyboard-response","419","550153","0.0-32.0-0.43","","","fixation_1","","","","","",""
"null","","null","image-keyboard-response","420","550160","0.0-32.0-1.43","","","test","leftarrow","0","1","TRUE","FALSE",""
"null","<div style=""font-size:60px;""> </div>","null","html-keyboard-response","421","550462","0.0-32.0-2.43","","","fixation_2","","","","","",""
"null","img_4.bmp","null","image-keyboard-response","422","551469","0.0-32.0-3.43","","","img_on","","","","","",""
"null","<div style=""font-size:60px;""> </div>","null","html-keyboard-response","423","551774","0.0-32.0-4.43","","","fixation_3","","","","","",""
"null","<img src=""CC1.png"" width=200 height=200/>","null","html-keyboard-response","424","552781","0.0-32.0-5.43","","","test","leftarrow","0","1","TRUE","FALSE",""
"null","<div style=""font-size:60px;""> </div>","null","html-keyboard-response","425","553086","0.0-32.0-6.43","","","fixation_4","","","","","",""
"214.7999997138977","arrows.png","38","image-keyboard-response","426","553303","0.0-32.0-7.43","","","test","leftarrow","0","1","TRUE","FALSE","false"
"null","<p style=""color: red; font-size:300%;"">incorrect: $0</p>","null","html-keyboard-response","427","554558","0.0-32.0-8.43","","","","","","","","",""
"null","<div style=""font-size:60px;""> </div>","null","html-keyboard-response","428","555614","0.0-32.0-0.44","","","fixation_1","","","","","",""
"null","","null","image-keyboard-response","429","555620","0.0-32.0-1.44","","","test","rightarrow","1","1","FALSE","FALSE",""
"null","<div style=""font-size:60px;""> </div>","null","html-keyboard-response","430","555923","0.0-32.0-2.44","","","fixation_2","","","","","",""
"null","img_2.bmp","null","image-keyboard-response","431","556930","0.0-32.0-3.44","","","img_on","","","","","",""
"null","<div style=""font-size:60px;""> </div>","null","html-keyboard-response","432","557235","0.0-32.0-4.44","","","fixation_3","","","","","",""
"null","","null","html-keyboard-response","433","557241","0.0-32.0-5.44","","","test","rightarrow","1","1","FALSE","FALSE",""
"null","<div style=""font-size:60px;""> </div>","null","html-keyboard-response","434","557545","0.0-32.0-6.44","","","fixation_4","","","","","",""
"1930.3000001907349","arrows.png","37","image-keyboard-response","435","559477","0.0-32.0-7.44","","","test","rightarrow","1","1","FALSE","FALSE","false"
"null","<p style=""color: red; font-size:300%;"">incorrect: $0</p>","null","html-keyboard-response","436","560734","0.0-32.0-8.44","","","","","","","","",""
"null","<div style=""font-size:60px;""> </div>","null","html-keyboard-response","437","561795","0.0-32.0-0.45","","","fixation_1","","","","","",""
"null","","null","image-keyboard-response","438","561802","0.0-32.0-1.45","","","test","downarrow","0","1","FALSE","FALSE",""
"null","<div style=""font-size:60px;""> </div>","null","html-keyboard-response","439","562105","0.0-32.0-2.45","","","fixation_2","","","","","",""
"null","img_3.bmp","null","image-keyboard-response","440","563111","0.0-32.0-3.45","","","img_on","","","","","",""
"null","<div style=""font-size:60px;""> </div>","null","html-keyboard-response","441","563417","0.0-32.0-4.45","","","fixation_3","","","","","",""
"null","","null","html-keyboard-response","442","563423","0.0-32.0-5.45","","","test","downarrow","0","1","FALSE","FALSE",""
"null","<div style=""font-size:60px;""> </div>","null","html-keyboard-response","443","563726","0.0-32.0-6.45","","","fixation_4","","","","","",""
"1385.5","arrows.png","40","image-keyboard-response","444","565113","0.0-32.0-7.45","","","test","downarrow","0","1","FALSE","FALSE","true"
"null","<p style=""color: green; font-size:300%;"">correct: $2.50</p>","null","html-keyboard-response","445","566371","0.0-32.0-8.45","","","","","","","","",""
"null","<div style=""font-size:60px;""> </div>","null","html-keyboard-response","446","566931","0.0-32.0-0.46","","","fixation_1","","","","","",""
"null","","null","image-keyboard-response","447","566939","0.0-32.0-1.46","","","test","leftarrow","0","1","FALSE","FALSE",""
"null","<div style=""font-size:60px;""> </div>","null","html-keyboard-response","448","567245","0.0-32.0-2.46","","","fixation_2","","","","","",""
"null","img_4.bmp","null","image-keyboard-response","449","568249","0.0-32.0-3.46","","","img_on","","","","","",""
"null","<div style=""font-size:60px;""> </div>","null","html-keyboard-response","450","568553","0.0-32.0-4.46","","","fixation_3","","","","","",""
"null","","null","html-keyboard-response","451","568559","0.0-32.0-5.46","","","test","leftarrow","0","1","FALSE","FALSE",""
"null","<div style=""font-size:60px;""> </div>","null","html-keyboard-response","452","568863","0.0-32.0-6.46","","","fixation_4","","","","","",""
"397.69999980926514","arrows.png","39","image-keyboard-response","453","569263","0.0-32.0-7.46","","","test","leftarrow","0","1","FALSE","FALSE","false"
"null","<p style=""color: red; font-size:300%;"">incorrect: $0</p>","null","html-keyboard-response","454","570521","0.0-32.0-8.46","","","","","","","","",""
"null","<div style=""font-size:60px;""> </div>","null","html-keyboard-response","455","571332","0.0-32.0-0.47","","","fixation_1","","","","","",""
"null","","null","image-keyboard-response","456","571338","0.0-32.0-1.47","","","test","uparrow","1","1","FALSE","FALSE",""
"null","<div style=""font-size:60px;""> </div>","null","html-keyboard-response","457","571642","0.0-32.0-2.47","","","fixation_2","","","","","",""
"null","img_1.bmp","null","image-keyboard-response","458","572649","0.0-32.0-3.47","","","img_on","","","","","",""
"null","<div style=""font-size:60px;""> </div>","null","html-keyboard-response","459","572953","0.0-32.0-4.47","","","fixation_3","","","","","",""
"null","","null","html-keyboard-response","460","572958","0.0-32.0-5.47","","","test","uparrow","1","1","FALSE","FALSE",""
"null","<div style=""font-size:60px;""> </div>","null","html-keyboard-response","461","573261","0.0-32.0-6.47","","","fixation_4","","","","","",""
"446.09999990463257","arrows.png","37","image-keyboard-response","462","573708","0.0-32.0-7.47","","","test","uparrow","1","1","FALSE","FALSE","false"
"null","<p style=""color: red; font-size:300%;"">incorrect: $0</p>","null","html-keyboard-response","463","574966","0.0-32.0-8.47","","","","","","","","",""
"null","<div style=""font-size:60px;""> </div>","null","html-keyboard-response","464","576526","0.0-32.0-0.48","","","fixation_1","","","","","",""
"null","","null","image-keyboard-response","465","576532","0.0-32.0-1.48","","","test","downarrow","0","1","FALSE","FALSE",""
"null","<div style=""font-size:60px;""> </div>","null","html-keyboard-response","466","576835","0.0-32.0-2.48","","","fixation_2","","","","","",""
"null","img_3.bmp","null","image-keyboard-response","467","577842","0.0-32.0-3.48","","","img_on","","","","","",""
"null","<div style=""font-size:60px;""> </div>","null","html-keyboard-response","468","578147","0.0-32.0-4.48","","","fixation_3","","","","","",""
"null","","null","html-keyboard-response","469","578153","0.0-32.0-5.48","","","test","downarrow","0","1","FALSE","FALSE",""
"null","<div style=""font-size:60px;""> </div>","null","html-keyboard-response","470","578457","0.0-32.0-6.48","","","fixation_4","","","","","",""
"449.09999990463257","arrows.png","40","image-keyboard-response","471","578908","0.0-32.0-7.48","","","test","downarrow","0","1","FALSE","FALSE","true"
"null","<p style=""color: green; font-size:300%;"">correct: $2.50</p>","null","html-keyboard-response","472","580163","0.0-32.0-8.48","","","","","","","","",""
"null","<div style=""font-size:60px;""> </div>","null","html-keyboard-response","473","581721","0.0-32.0-0.49","","","fixation_1","","","","","",""
"null","","null","image-keyboard-response","474","581726","0.0-32.0-1.49","","","test","rightarrow","1","1","FALSE","FALSE",""
"null","<div style=""font-size:60px;""> </div>","null","html-keyboard-response","475","582030","0.0-32.0-2.49","","","fixation_2","","","","","",""
"null","img_2.bmp","null","image-keyboard-response","476","583037","0.0-32.0-3.49","","","img_on","","","","","",""
"null","<div style=""font-size:60px;""> </div>","null","html-keyboard-response","477","583342","0.0-32.0-4.49","","","fixation_3","","","","","",""
"null","","null","html-keyboard-response","478","583348","0.0-32.0-5.49","","","test","rightarrow","1","1","FALSE","FALSE",""
"null","<div style=""font-size:60px;""> </div>","null","html-keyboard-response","479","583651","0.0-32.0-6.49","","","fixation_4","","","","","",""
"438.40000009536743","arrows.png","38","image-keyboard-response","480","584090","0.0-32.0-7.49","","","test","rightarrow","1","1","FALSE","FALSE","false"
"null","<p style=""color: red; font-size:300%;"">incorrect: $0</p>","null","html-keyboard-response","481","585347","0.0-32.0-8.49","","","","","","","","",""
"null","<div style=""font-size:60px;""> </div>","null","html-keyboard-response","482","586654","0.0-32.0-0.50","","","fixation_1","","","","","",""
"null","switch_cue.png","null","image-keyboard-response","483","587662","0.0-32.0-1.50","","","test","leftarrow","0","1","TRUE","TRUE",""
"null","<div style=""font-size:60px;""> </div>","null","html-keyboard-response","484","587966","0.0-32.0-2.50","","","fixation_2","","","","","",""
"null","img_4.bmp","null","image-keyboard-response","485","588973","0.0-32.0-3.50","","","img_on","","","","","",""
"null","<div style=""font-size:60px;""> </div>","null","html-keyboard-response","486","589278","0.0-32.0-4.50","","","fixation_3","","","","","",""
"null","<img src=""CC1.png"" width=200 height=200/>","null","html-keyboard-response","487","590285","0.0-32.0-5.50","","","test","leftarrow","0","1","TRUE","TRUE",""
"null","<div style=""font-size:60px;""> </div>","null","html-keyboard-response","488","590590","0.0-32.0-6.50","","","fixation_4","","","","","",""
"282.40000009536743","arrows.png","39","image-keyboard-response","489","590874","0.0-32.0-7.50","","","test","leftarrow","0","1","TRUE","TRUE","false"
"null","<p style=""color: red; font-size:300%;"">incorrect: $0</p>","null","html-keyboard-response","490","592131","0.0-32.0-8.50","","","","","","","","",""
"null","<div style=""font-size:60px;""> </div>","null","html-keyboard-response","491","592942","0.0-32.0-0.51","","","fixation_1","","","","","",""
"null","switch_cue.png","null","image-keyboard-response","492","593949","0.0-32.0-1.51","","","test","uparrow","1","1","TRUE","TRUE",""
"null","<div style=""font-size:60px;""> </div>","null","html-keyboard-response","493","594254","0.0-32.0-2.51","","","fixation_2","","","","","",""
"null","img_1.bmp","null","image-keyboard-response","494","595261","0.0-32.0-3.51","","","img_on","","","","","",""
"null","<div style=""font-size:60px;""> </div>","null","html-keyboard-response","495","595566","0.0-32.0-4.51","","","fixation_3","","","","","",""
"null","<img src=""CC1.png"" width=200 height=200/>","null","html-keyboard-response","496","596568","0.0-32.0-5.51","","","test","uparrow","1","1","TRUE","TRUE",""
"null","<div style=""font-size:60px;""> </div>","null","html-keyboard-response","497","596872","0.0-32.0-6.51","","","fixation_4","","","","","",""
"167.30000019073486","arrows.png","40","image-keyboard-response","498","597042","0.0-32.0-7.51","","","test","uparrow","1","1","TRUE","TRUE","false"
"null","<p style=""color: red; font-size:300%;"">incorrect: $0</p>","null","html-keyboard-response","499","598303","0.0-32.0-8.51","","","","","","","","",""
"null","<div style=""font-size:60px;""> </div>","null","html-keyboard-response","500","599363","0.0-32.0-0.52","","","fixation_1","","","","","",""
"null","switch_cue.png","null","image-keyboard-response","501","600370","0.0-32.0-1.52","","","test","uparrow","0","2","TRUE","TRUE",""
"null","<div style=""font-size:60px;""> </div>","null","html-keyboard-response","502","600675","0.0-32.0-2.52","","","fixation_2","","","","","",""
"null","img_4.bmp","null","image-keyboard-response","503","601682","0.0-32.0-3.52","","","img_on","","","","","",""
"null","<div style=""font-size:60px;""> </div>","null","html-keyboard-response","504","601987","0.0-32.0-4.52","","","fixation_3","","","","","",""
"null","<img src=""CC2.png"" width=200 height=200/>","null","html-keyboard-response","505","602994","0.0-32.0-5.52","","","test","uparrow","0","2","TRUE","TRUE",""
"null","<div style=""font-size:60px;""> </div>","null","html-keyboard-response","506","603299","0.0-32.0-6.52","","","fixation_4","","","","","",""
"352.90000009536743","arrows.png","37","image-keyboard-response","507","603654","0.0-32.0-7.52","","","test","uparrow","0","2","TRUE","TRUE","false"
"null","<p style=""color: red; font-size:300%;"">incorrect: $0</p>","null","html-keyboard-response","508","604910","0.0-32.0-8.52","","","","","","","","",""
"null","<div style=""font-size:60px;""> </div>","null","html-keyboard-response","509","606467","0.0-32.0-0.53","","","fixation_1","","","","","",""
"null","","null","image-keyboard-response","510","606474","0.0-32.0-1.53","","","test","leftarrow","1","2","TRUE","FALSE",""
"null","<div style=""font-size:60px;""> </div>","null","html-keyboard-response","511","606780","0.0-32.0-2.53","","","fixation_2","","","","","",""
"null","img_3.bmp","null","image-keyboard-response","512","607784","0.0-32.0-3.53","","","img_on","","","","","",""
"null","<div style=""font-size:60px;""> </div>","null","html-keyboard-response","513","608088","0.0-32.0-4.53","","","fixation_3","","","","","",""
"null","<img src=""CC2.png"" width=200 height=200/>","null","html-keyboard-response","514","609095","0.0-32.0-5.53","","","test","leftarrow","1","2","TRUE","FALSE",""
"null","<div style=""font-size:60px;""> </div>","null","html-keyboard-response","515","609400","0.0-32.0-6.53","","","fixation_4","","","","","",""
"1076.3000001907349","arrows.png","40","image-keyboard-response","516","610479","0.0-32.0-7.53","","","test","leftarrow","1","2","TRUE","FALSE","false"
"null","<p style=""color: red; font-size:300%;"">incorrect: $0</p>","null","html-keyboard-response","517","611740","0.0-32.0-8.53","","","","","","","","",""
"null","<div style=""font-size:60px;""> </div>","null","html-keyboard-response","518","613299","0.0-32.0-0.54","","","fixation_1","","","","","",""
"null","","null","image-keyboard-response","519","613306","0.0-32.0-1.54","","","test","rightarrow","0","2","TRUE","FALSE",""
"null","<div style=""font-size:60px;""> </div>","null","html-keyboard-response","520","613608","0.0-32.0-2.54","","","fixation_2","","","","","",""
"null","img_1.bmp","null","image-keyboard-response","521","614615","0.0-32.0-3.54","","","img_on","","","","","",""
"null","<div style=""font-size:60px;""> </div>","null","html-keyboard-response","522","614920","0.0-32.0-4.54","","","fixation_3","","","","","",""
"null","<img src=""CC2.png"" width=200 height=200/>","null","html-keyboard-response","523","615927","0.0-32.0-5.54","","","test","rightarrow","0","2","TRUE","FALSE",""
"null","<div style=""font-size:60px;""> </div>","null","html-keyboard-response","524","616232","0.0-32.0-6.54","","","fixation_4","","","","","",""
"747.0999999046326","arrows.png","39","image-keyboard-response","525","616981","0.0-32.0-7.54","","","test","rightarrow","0","2","TRUE","FALSE","true"
"null","<p style=""color: green; font-size:300%;"">correct: $2.50</p>","null","html-keyboard-response","526","618239","0.0-32.0-8.54","","","","","","","","",""
"null","<div style=""font-size:60px;""> </div>","null","html-keyboard-response","527","619549","0.0-32.0-0.55","","","fixation_1","","","","","",""
"null","","null","image-keyboard-response","528","619556","0.0-32.0-1.55","","","test","downarrow","1","2","TRUE","FALSE",""
"null","<div style=""font-size:60px;""> </div>","null","html-keyboard-response","529","619859","0.0-32.0-2.55","","","fixation_2","","","","","",""
"null","img_2.bmp","null","image-keyboard-response","530","620866","0.0-32.0-3.55","","","img_on","","","","","",""
"null","<div style=""font-size:60px;""> </div>","null","html-keyboard-response","531","621171","0.0-32.0-4.55","","","fixation_3","","","","","",""
"null","<img src=""CC2.png"" width=200 height=200/>","null","html-keyboard-response","532","622178","0.0-32.0-5.55","","","test","downarrow","1","2","TRUE","FALSE",""
"null","<div style=""font-size:60px;""> </div>","null","html-keyboard-response","533","622483","0.0-32.0-6.55","","","fixation_4","","","","","",""
"487.09999990463257","arrows.png","37","image-keyboard-response","534","622972","0.0-32.0-7.55","","","test","downarrow","1","2","TRUE","FALSE","false"
"null","<p style=""color: red; font-size:300%;"">incorrect: $0</p>","null","html-keyboard-response","535","624232","0.0-32.0-8.55","","","","","","","","",""
"null","<div style=""font-size:60px;""> </div>","null","html-keyboard-response","536","625293","0.0-32.0-0.56","","","fixation_1","","","","","",""
"null","","null","image-keyboard-response","537","625298","0.0-32.0-1.56","","","test","downarrow","1","2","FALSE","FALSE",""
"null","<div style=""font-size:60px;""> </div>","null","html-keyboard-response","538","625603","0.0-32.0-2.56","","","fixation_2","","","","","",""
"null","img_2.bmp","null","image-keyboard-response","539","626610","0.0-32.0-3.56","","","img_on","","","","","",""
"null","<div style=""font-size:60px;""> </div>","null","html-keyboard-response","540","626915","0.0-32.0-4.56","","","fixation_3","","","","","",""
"null","","null","html-keyboard-response","541","626921","0.0-32.0-5.56","","","test","downarrow","1","2","FALSE","FALSE",""
"null","<div style=""font-size:60px;""> </div>","null","html-keyboard-response","542","627224","0.0-32.0-6.56","","","fixation_4","","","","","",""
"1567.3999996185303","arrows.png","38","image-keyboard-response","543","628793","0.0-32.0-7.56","","","test","downarrow","1","2","FALSE","FALSE","false"
"null","<p style=""color: red; font-size:300%;"">incorrect: $0</p>","null","html-keyboard-response","544","630051","0.0-32.0-8.56","","","","","","","","",""
"null","<div style=""font-size:60px;""> </div>","null","html-keyboard-response","545","631107","0.0-32.0-0.57","","","fixation_1","","","","","",""
"null","","null","image-keyboard-response","546","631113","0.0-32.0-1.57","","","test","uparrow","0","2","FALSE","FALSE",""
"null","<div style=""font-size:60px;""> </div>","null","html-keyboard-response","547","631416","0.0-32.0-2.57","","","fixation_2","","","","","",""
"null","img_4.bmp","null","image-keyboard-response","548","632423","0.0-32.0-3.57","","","img_on","","","","","",""
"null","<div style=""font-size:60px;""> </div>","null","html-keyboard-response","549","632728","0.0-32.0-4.57","","","fixation_3","","","","","",""
"null","","null","html-keyboard-response","550","632734","0.0-32.0-5.57","","","test","uparrow","0","2","FALSE","FALSE",""
"null","<div style=""font-size:60px;""> </div>","null","html-keyboard-response","551","633040","0.0-32.0-6.57","","","fixation_4","","","","","",""
"1134.6999998092651","arrows.png","37","image-keyboard-response","552","634177","0.0-32.0-7.57","","","test","uparrow","0","2","FALSE","FALSE","false"
"null","<p style=""color: red; font-size:300%;"">incorrect: $0</p>","null","html-keyboard-response","553","635432","0.0-32.0-8.57","","","","","","","","",""
"null","<div style=""font-size:60px;""> </div>","null","html-keyboard-response","554","635992","0.0-32.0-0.58","","","fixation_1","","","","","",""
"null","","null","image-keyboard-response","555","635999","0.0-32.0-1.58","","","test","leftarrow","1","2","FALSE","FALSE",""
"null","<div style=""font-size:60px;""> </div>","null","html-keyboard-response","556","636301","0.0-32.0-2.58","","","fixation_2","","","","","",""
"null","img_3.bmp","null","image-keyboard-response","557","637304","0.0-32.0-3.58","","","img_on","","","","","",""
"null","<div style=""font-size:60px;""> </div>","null","html-keyboard-response","558","637608","0.0-32.0-4.58","","","fixation_3","","","","","",""
"null","","null","html-keyboard-response","559","637614","0.0-32.0-5.58","","","test","leftarrow","1","2","FALSE","FALSE",""
"null","<div style=""font-size:60px;""> </div>","null","html-keyboard-response","560","637917","0.0-32.0-6.58","","","fixation_4","","","","","",""
"818.3000001907349","arrows.png","37","image-keyboard-response","561","638738","0.0-32.0-7.58","","","test","leftarrow","1","2","FALSE","FALSE","true"
"null","<p style=""color: green; font-size:300%;"">correct: $7.50</p>","null","html-keyboard-response","562","639998","0.0-32.0-8.58","","","","","","","","",""
"null","<div style=""font-size:60px;""> </div>","null","html-keyboard-response","563","640807","0.0-32.0-0.59","","","fixation_1","","","","","",""
"null","","null","image-keyboard-response","564","640813","0.0-32.0-1.59","","","test","rightarrow","0","2","FALSE","FALSE",""
"null","<div style=""font-size:60px;""> </div>","null","html-keyboard-response","565","641117","0.0-32.0-2.59","","","fixation_2","","","","","",""
"null","img_1.bmp","null","image-keyboard-response","566","642120","0.0-32.0-3.59","","","img_on","","","","","",""
"null","<div style=""font-size:60px;""> </div>","null","html-keyboard-response","567","642424","0.0-32.0-4.59","","","fixation_3","","","","","",""
"null","","null","html-keyboard-response","568","642430","0.0-32.0-5.59","","","test","rightarrow","0","2","FALSE","FALSE",""
"null","<div style=""font-size:60px;""> </div>","null","html-keyboard-response","569","642733","0.0-32.0-6.59","","","fixation_4","","","","","",""
"436.30000019073486","arrows.png","39","image-keyboard-response","570","643172","0.0-32.0-7.59","","","test","rightarrow","0","2","FALSE","FALSE","true"
"null","<p style=""color: green; font-size:300%;"">correct: $2.50</p>","null","html-keyboard-response","571","644429","0.0-32.0-8.59","","","","","","","","",""
"null","<div style=""font-size:60px;""> </div>","null","html-keyboard-response","572","645736","0.0-32.0-0.60","","","fixation_1","","","","","",""
"null","","null","image-keyboard-response","573","645742","0.0-32.0-1.60","","","test","rightarrow","0","2","FALSE","FALSE",""
"null","<div style=""font-size:60px;""> </div>","null","html-keyboard-response","574","646045","0.0-32.0-2.60","","","fixation_2","","","","","",""
"null","img_1.bmp","null","image-keyboard-response","575","647052","0.0-32.0-3.60","","","img_on","","","","","",""
"null","<div style=""font-size:60px;""> </div>","null","html-keyboard-response","576","647357","0.0-32.0-4.60","","","fixation_3","","","","","",""
"null","","null","html-keyboard-response","577","647363","0.0-32.0-5.60","","","test","rightarrow","0","2","FALSE","FALSE",""
"null","<div style=""font-size:60px;""> </div>","null","html-keyboard-response","578","647667","0.0-32.0-6.60","","","fixation_4","","","","","",""
"493.2000002861023","arrows.png","37","image-keyboard-response","579","648162","0.0-32.0-7.60","","","test","rightarrow","0","2","FALSE","FALSE","false"
"null","<p style=""color: red; font-size:300%;"">incorrect: $0</p>","null","html-keyboard-response","580","649421","0.0-32.0-8.60","","","","","","","","",""
"null","<div style=""font-size:60px;""> </div>","null","html-keyboard-response","581","650728","0.0-32.0-0.61","","","fixation_1","","","","","",""
"null","","null","image-keyboard-response","582","650735","0.0-32.0-1.61","","","test","leftarrow","1","2","FALSE","FALSE",""
"null","<div style=""font-size:60px;""> </div>","null","html-keyboard-response","583","651041","0.0-32.0-2.61","","","fixation_2","","","","","",""
"null","img_3.bmp","null","image-keyboard-response","584","652045","0.0-32.0-3.61","","","img_on","","","","","",""
"null","<div style=""font-size:60px;""> </div>","null","html-keyboard-response","585","652349","0.0-32.0-4.61","","","fixation_3","","","","","",""
"null","","null","html-keyboard-response","586","652356","0.0-32.0-5.61","","","test","leftarrow","1","2","FALSE","FALSE",""
"null","<div style=""font-size:60px;""> </div>","null","html-keyboard-response","587","652659","0.0-32.0-6.61","","","fixation_4","","","","","",""
"555.1999998092651","arrows.png","39","image-keyboard-response","588","653216","0.0-32.0-7.61","","","test","leftarrow","1","2","FALSE","FALSE","false"
"null","<p style=""color: red; font-size:300%;"">incorrect: $0</p>","null","html-keyboard-response","589","654472","0.0-32.0-8.61","","","","","","","","",""
"null","<div style=""font-size:60px;""> </div>","null","html-keyboard-response","590","655778","0.0-32.0-0.62","","","fixation_1","","","","","",""
"null","","null","image-keyboard-response","591","655785","0.0-32.0-1.62","","","test","uparrow","0","2","FALSE","FALSE",""
"null","<div style=""font-size:60px;""> </div>","null","html-keyboard-response","592","656088","0.0-32.0-2.62","","","fixation_2","","","","","",""
"null","img_4.bmp","null","image-keyboard-response","593","657095","0.0-32.0-3.62","","","img_on","","","","","",""
"null","<div style=""font-size:60px;""> </div>","null","html-keyboard-response","594","657400","0.0-32.0-4.62","","","fixation_3","","","","","",""
"null","","null","html-keyboard-response","595","657406","0.0-32.0-5.62","","","test","uparrow","0","2","FALSE","FALSE",""
"null","<div style=""font-size:60px;""> </div>","null","html-keyboard-response","596","657711","0.0-32.0-6.62","","","fixation_4","","","","","",""
"507.30000019073486","arrows.png","40","image-keyboard-response","597","658221","0.0-32.0-7.62","","","test","uparrow","0","2","FALSE","FALSE","false"
"null","<p style=""color: red; font-size:300%;"">incorrect: $0</p>","null","html-keyboard-response","598","659480","0.0-32.0-8.62","","","","","","","","",""
"null","<div style=""font-size:60px;""> </div>","null","html-keyboard-response","599","661041","0.0-32.0-0.63","","","fixation_1","","","","","",""
"null","switch_cue.png","null","image-keyboard-response","600","662049","0.0-32.0-1.63","","","test","downarrow","1","2","TRUE","TRUE",""
"null","<div style=""font-size:60px;""> </div>","null","html-keyboard-response","601","662355","0.0-32.0-2.63","","","fixation_2","","","","","",""
"null","img_2.bmp","null","image-keyboard-response","602","663361","0.0-32.0-3.63","","","img_on","","","","","",""
"null","<div style=""font-size:60px;""> </div>","null","html-keyboard-response","603","663667","0.0-32.0-4.63","","","fixation_3","","","","","",""
"null","<img src=""CC2.png"" width=200 height=200/>","null","html-keyboard-response","604","664674","0.0-32.0-5.63","","","test","downarrow","1","2","TRUE","TRUE",""
"null","<div style=""font-size:60px;""> </div>","null","html-keyboard-response","605","664979","0.0-32.0-6.63","","","fixation_4","","","","","",""
"59.90000009536743","arrows.png","40","image-keyboard-response","606","665041","0.0-32.0-7.63","","","test","downarrow","1","2","TRUE","TRUE","true"
"null","<p style=""color: green; font-size:300%;"">correct: $7.50</p>","null","html-keyboard-response","607","666301","0.0-32.0-8.63","","","","","","","","",""
"null","<div style=""font-size:60px;""> </div>","null","html-keyboard-response","608","666861","0.0-32.0-0.64","","","fixation_1","","","","","",""
"null","switch_cue.png","null","image-keyboard-response","609","667868","0.0-32.0-1.64","","","test","rightarrow","1","3","TRUE","TRUE",""
"null","<div style=""font-size:60px;""> </div>","null","html-keyboard-response","610","668173","0.0-32.0-2.64","","","fixation_2","","","","","",""
"null","img_2.bmp","null","image-keyboard-response","611","669180","0.0-32.0-3.64","","","img_on","","","","","",""
"null","<div style=""font-size:60px;""> </div>","null","html-keyboard-response","612","669485","0.0-32.0-4.64","","","fixation_3","","","","","",""
"null","<img src=""CC3.png"" width=200 height=200/>","null","html-keyboard-response","613","670492","0.0-32.0-5.64","","","test","rightarrow","1","3","TRUE","TRUE",""
"null","<div style=""font-size:60px;""> </div>","null","html-keyboard-response","614","670797","0.0-32.0-6.64","","","fixation_4","","","","","",""
"412.5","arrows.png","40","image-keyboard-response","615","671212","0.0-32.0-7.64","","","test","rightarrow","1","3","TRUE","TRUE","false"
"null","<p style=""color: red; font-size:300%;"">incorrect: $0</p>","null","html-keyboard-response","616","672466","0.0-32.0-8.64","","","","","","","","",""
"null","<div style=""font-size:60px;""> </div>","null","html-keyboard-response","617","673026","0.0-32.0-0.65","","","fixation_1","","","","","",""
"null","","null","image-keyboard-response","618","673032","0.0-32.0-1.65","","","test","downarrow","0","3","TRUE","FALSE",""
"null","<div style=""font-size:60px;""> </div>","null","html-keyboard-response","619","673336","0.0-32.0-2.65","","","fixation_2","","","","","",""
"null","img_3.bmp","null","image-keyboard-response","620","674343","0.0-32.0-3.65","","","img_on","","","","","",""
"null","<div style=""font-size:60px;""> </div>","null","html-keyboard-response","621","674648","0.0-32.0-4.65","","","fixation_3","","","","","",""
"null","<img src=""CC3.png"" width=200 height=200/>","null","html-keyboard-response","622","675655","0.0-32.0-5.65","","","test","downarrow","0","3","TRUE","FALSE",""
"null","<div style=""font-size:60px;""> </div>","null","html-keyboard-response","623","675960","0.0-32.0-6.65","","","fixation_4","","","","","",""
"954.9000000953674","arrows.png","38","image-keyboard-response","624","676917","0.0-32.0-7.65","","","test","downarrow","0","3","TRUE","FALSE","false"
"null","<p style=""color: red; font-size:300%;"">incorrect: $0</p>","null","html-keyboard-response","625","678173","0.0-32.0-8.65","","","","","","","","",""
"null","<div style=""font-size:60px;""> </div>","null","html-keyboard-response","626","678981","0.0-32.0-0.66","","","fixation_1","","","","","",""
"null","","null","image-keyboard-response","627","678987","0.0-32.0-1.66","","","test","leftarrow","0","3","TRUE","FALSE",""
"null","<div style=""font-size:60px;""> </div>","null","html-keyboard-response","628","679293","0.0-32.0-2.66","","","fixation_2","","","","","",""
"null","img_4.bmp","null","image-keyboard-response","629","680300","0.0-32.0-3.66","","","img_on","","","","","",""
"null","<div style=""font-size:60px;""> </div>","null","html-keyboard-response","630","680605","0.0-32.0-4.66","","","fixation_3","","","","","",""
"null","<img src=""CC3.png"" width=200 height=200/>","null","html-keyboard-response","631","681612","0.0-32.0-5.66","","","test","leftarrow","0","3","TRUE","FALSE",""
"null","<div style=""font-size:60px;""> </div>","null","html-keyboard-response","632","681917","0.0-32.0-6.66","","","fixation_4","","","","","",""
"593","arrows.png","37","image-keyboard-response","633","682513","0.0-32.0-7.66","","","test","leftarrow","0","3","TRUE","FALSE","true"
"null","<p style=""color: green; font-size:300%;"">correct: $2.50</p>","null","html-keyboard-response","634","683773","0.0-32.0-8.66","","","","","","","","",""
"null","<div style=""font-size:60px;""> </div>","null","html-keyboard-response","635","685330","0.0-32.0-0.67","","","fixation_1","","","","","",""
"null","","null","image-keyboard-response","636","685337","0.0-32.0-1.67","","","test","leftarrow","0","3","TRUE","FALSE",""
"null","<div style=""font-size:60px;""> </div>","null","html-keyboard-response","637","685640","0.0-32.0-2.67","","","fixation_2","","","","","",""
"null","img_4.bmp","null","image-keyboard-response","638","686647","0.0-32.0-3.67","","","img_on","","","","","",""
"null","<div style=""font-size:60px;""> </div>","null","html-keyboard-response","639","686952","0.0-32.0-4.67","","","fixation_3","","","","","",""
"null","<img src=""CC3.png"" width=200 height=200/>","null","html-keyboard-response","640","687958","0.0-32.0-5.67","","","test","leftarrow","0","3","TRUE","FALSE",""
"null","<div style=""font-size:60px;""> </div>","null","html-keyboard-response","641","688264","0.0-32.0-6.67","","","fixation_4","","","","","",""
"446.59999990463257","arrows.png","37","image-keyboard-response","642","688712","0.0-32.0-7.67","","","test","leftarrow","0","3","TRUE","FALSE","true"
"null","<p style=""color: green; font-size:300%;"">correct: $2.50</p>","null","html-keyboard-response","643","689970","0.0-32.0-8.67","","","","","","","","",""
"null","<div style=""font-size:60px;""> </div>","null","html-keyboard-response","644","691277","0.0-32.0-0.68","","","fixation_1","","","","","",""
"null","","null","image-keyboard-response","645","691283","0.0-32.0-1.68","","","test","downarrow","0","3","FALSE","FALSE",""
"null","<div style=""font-size:60px;""> </div>","null","html-keyboard-response","646","691586","0.0-32.0-2.68","","","fixation_2","","","","","",""
"null","img_3.bmp","null","image-keyboard-response","647","692593","0.0-32.0-3.68","","","img_on","","","","","",""
"null","<div style=""font-size:60px;""> </div>","null","html-keyboard-response","648","692898","0.0-32.0-4.68","","","fixation_3","","","","","",""
"null","","null","html-keyboard-response","649","692904","0.0-32.0-5.68","","","test","downarrow","0","3","FALSE","FALSE",""
"null","<div style=""font-size:60px;""> </div>","null","html-keyboard-response","650","693209","0.0-32.0-6.68","","","fixation_4","","","","","",""
"1863.3000001907349","arrows.png","39","image-keyboard-response","651","695075","0.0-32.0-7.68","","","test","downarrow","0","3","FALSE","FALSE","false"
"null","<p style=""color: red; font-size:300%;"">incorrect: $0</p>","null","html-keyboard-response","652","696332","0.0-32.0-8.68","","","","","","","","",""
"null","<div style=""font-size:60px;""> </div>","null","html-keyboard-response","653","697144","0.0-32.0-0.69","","","fixation_1","","","","","",""
"null","","null","image-keyboard-response","654","697151","0.0-32.0-1.69","","","test","rightarrow","1","3","FALSE","FALSE",""
"null","<div style=""font-size:60px;""> </div>","null","html-keyboard-response","655","697457","0.0-32.0-2.69","","","fixation_2","","","","","",""
"null","img_2.bmp","null","image-keyboard-response","656","698461","0.0-32.0-3.69","","","img_on","","","","","",""
"null","<div style=""font-size:60px;""> </div>","null","html-keyboard-response","657","698765","0.0-32.0-4.69","","","fixation_3","","","","","",""
"null","","null","html-keyboard-response","658","698771","0.0-32.0-5.69","","","test","rightarrow","1","3","FALSE","FALSE",""
"null","<div style=""font-size:60px;""> </div>","null","html-keyboard-response","659","699074","0.0-32.0-6.69","","","fixation_4","","","","","",""
"512.8000001907349","arrows.png","39","image-keyboard-response","660","699589","0.0-32.0-7.69","","","test","rightarrow","1","3","FALSE","FALSE","true"
"null","<p style=""color: green; font-size:300%;"">correct: $7.50</p>","null","html-keyboard-response","661","700849","0.0-32.0-8.69","","","","","","","","",""
"null","<div style=""font-size:60px;""> </div>","null","html-keyboard-response","662","702408","0.0-32.0-0.70","","","fixation_1","","","","","",""
"null","","null","image-keyboard-response","663","702415","0.0-32.0-1.70","","","test","leftarrow","0","3","FALSE","FALSE",""
"null","<div style=""font-size:60px;""> </div>","null","html-keyboard-response","664","702721","0.0-32.0-2.70","","","fixation_2","","","","","",""
"null","img_4.bmp","null","image-keyboard-response","665","703725","0.0-32.0-3.70","","","img_on","","","","","",""
"null","<div style=""font-size:60px;""> </div>","null","html-keyboard-response","666","704029","0.0-32.0-4.70","","","fixation_3","","","","","",""
"null","","null","html-keyboard-response","667","704035","0.0-32.0-5.70","","","test","leftarrow","0","3","FALSE","FALSE",""
"null","<div style=""font-size:60px;""> </div>","null","html-keyboard-response","668","704338","0.0-32.0-6.70","","","fixation_4","","","","","",""
"1084.6999998092651","arrows.png","38","image-keyboard-response","669","705423","0.0-32.0-7.70","","","test","leftarrow","0","3","FALSE","FALSE","false"
"null","<p style=""color: red; font-size:300%;"">incorrect: $0</p>","null","html-keyboard-response","670","706680","0.0-32.0-8.70","","","","","","","","",""
"null","<div style=""font-size:60px;""> </div>","null","html-keyboard-response","671","707490","0.0-32.0-0.71","","","fixation_1","","","","","",""
"null","","null","image-keyboard-response","672","707496","0.0-32.0-1.71","","","test","downarrow","0","3","FALSE","FALSE",""
"null","<div style=""font-size:60px;""> </div>","null","html-keyboard-response","673","707799","0.0-32.0-2.71","","","fixation_2","","","","","",""
"null","img_3.bmp","null","image-keyboard-response","674","708806","0.0-32.0-3.71","","","img_on","","","","","",""
"null","<div style=""font-size:60px;""> </div>","null","html-keyboard-response","675","709112","0.0-32.0-4.71","","","fixation_3","","","","","",""
"null","","null","html-keyboard-response","676","709118","0.0-32.0-5.71","","","test","downarrow","0","3","FALSE","FALSE",""
"null","<div style=""font-size:60px;""> </div>","null","html-keyboard-response","677","709421","0.0-32.0-6.71","","","fixation_4","","","","","",""
"649.8999996185303","arrows.png","38","image-keyboard-response","678","710073","0.0-32.0-7.71","","","test","downarrow","0","3","FALSE","FALSE","false"
"null","<p style=""color: red; font-size:300%;"">incorrect: $0</p>","null","html-keyboard-response","679","711330","0.0-32.0-8.71","","","","","","","","",""
"null","<div style=""font-size:60px;""> </div>","null","html-keyboard-response","680","712888","0.0-32.0-0.72","","","fixation_1","","","","","",""
"null","","null","image-keyboard-response","681","712895","0.0-32.0-1.72","","","test","rightarrow","1","3","FALSE","FALSE",""
"null","<div style=""font-size:60px;""> </div>","null","html-keyboard-response","682","713201","0.0-32.0-2.72","","","fixation_2","","","","","",""
"null","img_2.bmp","null","image-keyboard-response","683","714209","0.0-32.0-3.72","","","img_on","","","","","",""
"null","<div style=""font-size:60px;""> </div>","null","html-keyboard-response","684","714514","0.0-32.0-4.72","","","fixation_3","","","","","",""
"null","","null","html-keyboard-response","685","714520","0.0-32.0-5.72","","","test","rightarrow","1","3","FALSE","FALSE",""
"null","<div style=""font-size:60px;""> </div>","null","html-keyboard-response","686","714824","0.0-32.0-6.72","","","fixation_4","","","","","",""
"438","arrows.png","39","image-keyboard-response","687","715264","0.0-32.0-7.72","","","test","rightarrow","1","3","FALSE","FALSE","true"
"null","<p style=""color: green; font-size:300%;"">correct: $7.50</p>","null","html-keyboard-response","688","716523","0.0-32.0-8.72","","","","","","","","",""
"null","<div style=""font-size:60px;""> </div>","null","html-keyboard-response","689","718082","0.0-32.0-0.73","","","fixation_1","","","","","",""
"null","switch_cue.png","null","image-keyboard-response","690","719090","0.0-32.0-1.73","","","test","uparrow","0","4","TRUE","TRUE",""
"null","<div style=""font-size:60px;""> </div>","null","html-keyboard-response","691","719394","0.0-32.0-2.73","","","fixation_2","","","","","",""
"null","img_4.bmp","null","image-keyboard-response","692","720401","0.0-32.0-3.73","","","img_on","","","","","",""
"null","<div style=""font-size:60px;""> </div>","null","html-keyboard-response","693","720706","0.0-32.0-4.73","","","fixation_3","","","","","",""
"null","<img src=""CC4.png"" width=200 height=200/>","null","html-keyboard-response","694","721713","0.0-32.0-5.73","","","test","uparrow","0","4","TRUE","TRUE",""
