"rt","stimulus","key_press","trial_type","trial_index","time_elapsed","internal_node_id","responses","view_history","test_part","correct_response","outcome","context","cc","sc","correct"
"5079","<p><b>Welcome to the Picture Learning Game!</b></p>
      <p>The game will take ~35 minutes to complete, and you can make up to $17.50.</p>
      <p>You must use a desktop or laptop computer computer (no mobile devices).</p>
      <p><em>Press any key to continue.</em></p>","32","html-keyboard-response","0","5103","0.0-0.0","","","","","","","","",""
"8625.10000000149","","","survey-text","1","13735","0.0-1.0","{""aws"":""AEWGY34WUIA32""}","","","","","","","",""
"10241.79999999702","","","survey-text","2","23985","0.0-2.0","{""age"":""34"",""english"":""Y"",""handedness"":""R"",""desktop"":""Y""}","","","","","","","",""
"41719.79999999702","","","instructions","3","65708","0.0-3.0","","[{""page_index"":0,""viewing_time"":1389.5},{""page_index"":1,""viewing_time"":28820.19999999553},{""page_index"":2,""viewing_time"":2661.5},{""page_index"":3,""viewing_time"":5718.4000000059605},{""page_index"":4,""viewing_time"":3129.5999999940395}]","","","","","","",""
"null","sample1.bmp","null","image-keyboard-response","4","66714","0.0-4.0","","","","","","","","",""
"1111","arrows.png","38","image-keyboard-response","5","68129","0.0-5.0","","","","","","","","",""
"14495.5","","","instructions","6","82625","0.0-6.0","","[{""page_index"":0,""viewing_time"":1093.6000000014901},{""page_index"":1,""viewing_time"":9930.29999999702},{""page_index"":2,""viewing_time"":3471}]","","","","","","",""
"null","sample1.bmp","null","image-keyboard-response","7","83630","0.0-7.0","","","","","","","","",""
"null","<img src=""CC1.png"" width=200 height=200/>","null","html-keyboard-response","8","84936","0.0-8.0","","","","","","","","",""
"585.7999999970198","arrows.png","38","image-keyboard-response","9","85824","0.0-9.0","","","","","","","","",""
"3595.9000000059605","","","instructions","10","89421","0.0-10.0","","[{""page_index"":0,""viewing_time"":1253},{""page_index"":1,""viewing_time"":2342.4000000059605}]","","","","","","",""
"null","sample1.bmp","null","image-keyboard-response","11","90427","0.0-11.0","","","","","","","","",""
"null","<img src=""CC2.png"" width=200 height=200/>","null","html-keyboard-response","12","91734","0.0-12.0","","","","","","","","",""
"945","arrows.png","39","image-keyboard-response","13","92984","0.0-13.0","","","","","","","","",""
"28115.90000000596","","","instructions","14","121102","0.0-14.0","","[{""page_index"":0,""viewing_time"":1325.1000000014901},{""page_index"":1,""viewing_time"":6574.10000000149},{""page_index"":2,""viewing_time"":7107.89999999851},{""page_index"":3,""viewing_time"":3374},{""page_index"":4,""viewing_time"":9734.10000000149}]","","","","","","",""
"null","sample1.bmp","null","image-keyboard-response","15","122108","0.0-15.0","","","","","","","","",""
"445","arrows.png","39","image-keyboard-response","16","122857","0.0-16.0","","","","","","","","",""
"10749.69999999553","","","instructions","17","133608","0.0-17.0","","[{""page_index"":0,""viewing_time"":2259.2999999970198},{""page_index"":1,""viewing_time"":5526.10000000149},{""page_index"":2,""viewing_time"":2963.6999999955297}]","","","","","","",""
"null","sample1.bmp","null","image-keyboard-response","18","134611","0.0-18.0","","","","","","","","",""
"1286.7999999970198","arrows.png","39","image-keyboard-response","19","136202","0.0-19.0","","","","","","","","",""
"null","<p style=""color: green; font-size:300%;"">correct</p>","null","html-keyboard-response","20","137206","0.0-20.0","","","","","","","","",""
"null","switch_cue.png","null","image-keyboard-response","21","138512","0.0-21.0","","","","","","","","",""
"null","sample1.bmp","null","image-keyboard-response","22","139820","0.0-22.0","","","","","","","","",""
"null","<img src=""CC2.png"" width=200 height=200/>","null","html-keyboard-response","23","141124","0.0-23.0","","","","","","","","",""
"398.70000000298023","arrows.png","39","image-keyboard-response","24","141826","0.0-24.0","","","","","","","","",""
"null","<p style=""color: green; font-size:300%;"">correct</p>","null","html-keyboard-response","25","142832","0.0-25.0","","","","","","","","",""
"null","switch_cue.png","null","image-keyboard-response","26","144140","0.0-26.0","","","","","","","","",""
"null","sample1.bmp","null","image-keyboard-response","27","145448","0.0-27.0","","","","","","","","",""
"null","<img src=""CC1.png"" width=200 height=200/>","null","html-keyboard-response","28","146756","0.0-28.0","","","","","","","","",""
"349","arrows.png","38","image-keyboard-response","29","147410","0.0-29.0","","","","","","","","",""
"null","<p style=""color: green; font-size:300%;"">correct</p>","null","html-keyboard-response","30","148415","0.0-30.0","","","","","","","","",""
"61516.20000000298","","","instructions","31","210238","0.0-31.0","","[{""page_index"":0,""viewing_time"":2985.2000000029802},{""page_index"":1,""viewing_time"":1046.1999999955297},{""page_index"":2,""viewing_time"":25872},{""page_index"":3,""viewing_time"":14333.80000000447},{""page_index"":4,""viewing_time"":4954.19999999553},{""page_index"":5,""viewing_time"":3029.89999999851},{""page_index"":6,""viewing_time"":7944.5},{""page_index"":7,""viewing_time"":1349.6000000014901}]","","","","","","",""
"null","<div style=""font-size:60px;""> </div>","null","html-keyboard-response","32","210542","0.0-32.0-0.0","","","fixation_1","","","","","",""
"null","","null","image-keyboard-response","33","210546","0.0-32.0-1.0","","","test","downarrow","1","1","TRUE","FALSE",""
"null","<div style=""font-size:60px;""> </div>","null","html-keyboard-response","34","210850","0.0-32.0-2.0","","","fixation_2","","","","","",""
"null","img_2.bmp","null","image-keyboard-response","35","211854","0.0-32.0-3.0","","","img_on","","","","","",""
"null","<div style=""font-size:60px;""> </div>","null","html-keyboard-response","36","212158","0.0-32.0-4.0","","","fixation_3","","","","","",""
"null","<img src=""CC1.png"" width=200 height=200/>","null","html-keyboard-response","37","213162","0.0-32.0-5.0","","","test","downarrow","1","1","TRUE","FALSE",""
"null","<div style=""font-size:60px;""> </div>","null","html-keyboard-response","38","213468","0.0-32.0-6.0","","","fixation_4","","","","","",""
"447.20000000298023","arrows.png","38","image-keyboard-response","39","213916","0.0-32.0-7.0","","","test","downarrow","1","1","TRUE","FALSE","false"
"null","<p style=""color: red; font-size:300%;"">incorrect: $0</p>","null","html-keyboard-response","40","215175","0.0-32.0-8.0","","","","","","","","",""
"null","<div style=""font-size:60px;""> </div>","null","html-keyboard-response","41","216732","0.0-32.0-0.1","","","fixation_1","","","","","",""
"null","","null","image-keyboard-response","42","216738","0.0-32.0-1.1","","","test","uparrow","0","1","TRUE","FALSE",""
"null","<div style=""font-size:60px;""> </div>","null","html-keyboard-response","43","217044","0.0-32.0-2.1","","","fixation_2","","","","","",""
"null","img_4.bmp","null","image-keyboard-response","44","218048","0.0-32.0-3.1","","","img_on","","","","","",""
"null","<div style=""font-size:60px;""> </div>","null","html-keyboard-response","45","218350","0.0-32.0-4.1","","","fixation_3","","","","","",""
"null","<img src=""CC1.png"" width=200 height=200/>","null","html-keyboard-response","46","219355","0.0-32.0-5.1","","","test","uparrow","0","1","TRUE","FALSE",""
"null","<div style=""font-size:60px;""> </div>","null","html-keyboard-response","47","219657","0.0-32.0-6.1","","","fixation_4","","","","","",""
"593","arrows.png","38","image-keyboard-response","48","220253","0.0-32.0-7.1","","","test","uparrow","0","1","TRUE","FALSE","true"
"null","<p style=""color: green; font-size:300%;"">correct: $2.50</p>","null","html-keyboard-response","49","221509","0.0-32.0-8.1","","","","","","","","",""
"null","<div style=""font-size:60px;""> </div>","null","html-keyboard-response","50","222564","0.0-32.0-0.2","","","fixation_1","","","","","",""
"null","","null","image-keyboard-response","51","222571","0.0-32.0-1.2","","","test","leftarrow","1","1","TRUE","FALSE",""
"null","<div style=""font-size:60px;""> </div>","null","html-keyboard-response","52","222874","0.0-32.0-2.2","","","fixation_2","","","","","",""
"null","img_3.bmp","null","image-keyboard-response","53","223879","0.0-32.0-3.2","","","img_on","","","","","",""
"null","<div style=""font-size:60px;""> </div>","null","html-keyboard-response","54","224184","0.0-32.0-4.2","","","fixation_3","","","","","",""
"null","<img src=""CC1.png"" width=200 height=200/>","null","html-keyboard-response","55","225189","0.0-32.0-5.2","","","test","leftarrow","1","1","TRUE","FALSE",""
"null","<div style=""font-size:60px;""> </div>","null","html-keyboard-response","56","225490","0.0-32.0-6.2","","","fixation_4","","","","","",""
"1976.2000000029802","arrows.png","37","image-keyboard-response","57","227468","0.0-32.0-7.2","","","test","leftarrow","1","1","TRUE","FALSE","true"
"null","<p style=""color: green; font-size:300%;"">correct: $7.50</p>","null","html-keyboard-response","58","228726","0.0-32.0-8.2","","","","","","","","",""
"null","<div style=""font-size:60px;""> </div>","null","html-keyboard-response","59","229283","0.0-32.0-0.3","","","fixation_1","","","","","",""
"null","","null","image-keyboard-response","60","229289","0.0-32.0-1.3","","","test","rightarrow","0","1","TRUE","FALSE",""
"null","<div style=""font-size:60px;""> </div>","null","html-keyboard-response","61","229595","0.0-32.0-2.3","","","fixation_2","","","","","",""
"null","img_1.bmp","null","image-keyboard-response","62","230599","0.0-32.0-3.3","","","img_on","","","","","",""
"null","<div style=""font-size:60px;""> </div>","null","html-keyboard-response","63","230903","0.0-32.0-4.3","","","fixation_3","","","","","",""
"null","<img src=""CC1.png"" width=200 height=200/>","null","html-keyboard-response","64","231907","0.0-32.0-5.3","","","test","rightarrow","0","1","TRUE","FALSE",""
"null","<div style=""font-size:60px;""> </div>","null","html-keyboard-response","65","232214","0.0-32.0-6.3","","","fixation_4","","","","","",""
"445.09999999403954","arrows.png","39","image-keyboard-response","66","232662","0.0-32.0-7.3","","","test","rightarrow","0","1","TRUE","FALSE","true"
"null","<p style=""color: green; font-size:300%;"">correct: $2.50</p>","null","html-keyboard-response","67","233920","0.0-32.0-8.3","","","","","","","","",""
"null","<div style=""font-size:60px;""> </div>","null","html-keyboard-response","68","234979","0.0-32.0-0.4","","","fixation_1","","","","","",""
"null","","null","image-keyboard-response","69","234986","0.0-32.0-1.4","","","test","downarrow","1","1","FALSE","FALSE",""
"null","<div style=""font-size:60px;""> </div>","null","html-keyboard-response","70","235291","0.0-32.0-2.4","","","fixation_2","","","","","",""
"null","img_2.bmp","null","image-keyboard-response","71","236294","0.0-32.0-3.4","","","img_on","","","","","",""
"null","<div style=""font-size:60px;""> </div>","null","html-keyboard-response","72","236599","0.0-32.0-4.4","","","fixation_3","","","","","",""
"null","","null","html-keyboard-response","73","236606","0.0-32.0-5.4","","","test","downarrow","1","1","FALSE","FALSE",""
"null","<div style=""font-size:60px;""> </div>","null","html-keyboard-response","74","236911","0.0-32.0-6.4","","","fixation_4","","","","","",""
"652.6000000014901","arrows.png","40","image-keyboard-response","75","237565","0.0-32.0-7.4","","","test","downarrow","1","1","FALSE","FALSE","true"
"null","<p style=""color: green; font-size:300%;"">correct: $7.50</p>","null","html-keyboard-response","76","238819","0.0-32.0-8.4","","","","","","","","",""
"null","<div style=""font-size:60px;""> </div>","null","html-keyboard-response","77","239879","0.0-32.0-0.5","","","fixation_1","","","","","",""
"null","","null","image-keyboard-response","78","239885","0.0-32.0-1.5","","","test","leftarrow","1","1","FALSE","FALSE",""
"null","<div style=""font-size:60px;""> </div>","null","html-keyboard-response","79","240189","0.0-32.0-2.5","","","fixation_2","","","","","",""
"null","img_3.bmp","null","image-keyboard-response","80","241194","0.0-32.0-3.5","","","img_on","","","","","",""
"null","<div style=""font-size:60px;""> </div>","null","html-keyboard-response","81","241495","0.0-32.0-4.5","","","fixation_3","","","","","",""
"null","","null","html-keyboard-response","82","241501","0.0-32.0-5.5","","","test","leftarrow","1","1","FALSE","FALSE",""
"null","<div style=""font-size:60px;""> </div>","null","html-keyboard-response","83","241803","0.0-32.0-6.5","","","fixation_4","","","","","",""
"384.19999999552965","arrows.png","37","image-keyboard-response","84","242189","0.0-32.0-7.5","","","test","leftarrow","1","1","FALSE","FALSE","true"
"null","<p style=""color: green; font-size:300%;"">correct: $7.50</p>","null","html-keyboard-response","85","243447","0.0-32.0-8.5","","","","","","","","",""
"null","<div style=""font-size:60px;""> </div>","null","html-keyboard-response","86","244003","0.0-32.0-0.6","","","fixation_1","","","","","",""
"null","","null","image-keyboard-response","87","244009","0.0-32.0-1.6","","","test","rightarrow","0","1","FALSE","FALSE",""
"null","<div style=""font-size:60px;""> </div>","null","html-keyboard-response","88","244311","0.0-32.0-2.6","","","fixation_2","","","","","",""
"null","img_1.bmp","null","image-keyboard-response","89","245315","0.0-32.0-3.6","","","img_on","","","","","",""
"null","<div style=""font-size:60px;""> </div>","null","html-keyboard-response","90","245619","0.0-32.0-4.6","","","fixation_3","","","","","",""
"null","","null","html-keyboard-response","91","245625","0.0-32.0-5.6","","","test","rightarrow","0","1","FALSE","FALSE",""
"null","<div style=""font-size:60px;""> </div>","null","html-keyboard-response","92","245931","0.0-32.0-6.6","","","fixation_4","","","","","",""
"624.8999999985099","arrows.png","39","image-keyboard-response","93","246557","0.0-32.0-7.6","","","test","rightarrow","0","1","FALSE","FALSE","true"
"null","<p style=""color: green; font-size:300%;"">correct: $2.50</p>","null","html-keyboard-response","94","247811","0.0-32.0-8.6","","","","","","","","",""
"null","<div style=""font-size:60px;""> </div>","null","html-keyboard-response","95","249367","0.0-32.0-0.7","","","fixation_1","","","","","",""
"null","","null","image-keyboard-response","96","249373","0.0-32.0-1.7","","","test","uparrow","0","1","FALSE","FALSE",""
"null","<div style=""font-size:60px;""> </div>","null","html-keyboard-response","97","249675","0.0-32.0-2.7","","","fixation_2","","","","","",""
"null","img_4.bmp","null","image-keyboard-response","98","250679","0.0-32.0-3.7","","","img_on","","","","","",""
"null","<div style=""font-size:60px;""> </div>","null","html-keyboard-response","99","250981","0.0-32.0-4.7","","","fixation_3","","","","","",""
"null","","null","html-keyboard-response","100","250987","0.0-32.0-5.7","","","test","uparrow","0","1","FALSE","FALSE",""
"null","<div style=""font-size:60px;""> </div>","null","html-keyboard-response","101","251291","0.0-32.0-6.7","","","fixation_4","","","","","",""
"1280.2999999970198","arrows.png","38","image-keyboard-response","102","252573","0.0-32.0-7.7","","","test","uparrow","0","1","FALSE","FALSE","true"
"null","<p style=""color: green; font-size:300%;"">correct: $2.50</p>","null","html-keyboard-response","103","253831","0.0-32.0-8.7","","","","","","","","",""
"null","<div style=""font-size:60px;""> </div>","null","html-keyboard-response","104","254391","0.0-32.0-0.8","","","fixation_1","","","","","",""
"null","","null","image-keyboard-response","105","254398","0.0-32.0-1.8","","","test","downarrow","1","1","FALSE","FALSE",""
"null","<div style=""font-size:60px;""> </div>","null","html-keyboard-response","106","254702","0.0-32.0-2.8","","","fixation_2","","","","","",""
"null","img_2.bmp","null","image-keyboard-response","107","255707","0.0-32.0-3.8","","","img_on","","","","","",""
"null","<div style=""font-size:60px;""> </div>","null","html-keyboard-response","108","256012","0.0-32.0-4.8","","","fixation_3","","","","","",""
"null","","null","html-keyboard-response","109","256018","0.0-32.0-5.8","","","test","downarrow","1","1","FALSE","FALSE",""
"null","<div style=""font-size:60px;""> </div>","null","html-keyboard-response","110","256324","0.0-32.0-6.8","","","fixation_4","","","","","",""
"736.2999999970198","arrows.png","40","image-keyboard-response","111","257062","0.0-32.0-7.8","","","test","downarrow","1","1","FALSE","FALSE","true"
"null","<p style=""color: green; font-size:300%;"">correct: $7.50</p>","null","html-keyboard-response","112","258320","0.0-32.0-8.8","","","","","","","","",""
"null","<div style=""font-size:60px;""> </div>","null","html-keyboard-response","113","259624","0.0-32.0-0.9","","","fixation_1","","","","","",""
"null","","null","image-keyboard-response","114","259631","0.0-32.0-1.9","","","test","uparrow","0","1","FALSE","FALSE",""
"null","<div style=""font-size:60px;""> </div>","null","html-keyboard-response","115","259936","0.0-32.0-2.9","","","fixation_2","","","","","",""
"null","img_4.bmp","null","image-keyboard-response","116","260940","0.0-32.0-3.9","","","img_on","","","","","",""
"null","<div style=""font-size:60px;""> </div>","null","html-keyboard-response","117","261244","0.0-32.0-4.9","","","fixation_3","","","","","",""
"null","","null","html-keyboard-response","118","261251","0.0-32.0-5.9","","","test","uparrow","0","1","FALSE","FALSE",""
"null","<div style=""font-size:60px;""> </div>","null","html-keyboard-response","119","261553","0.0-32.0-6.9","","","fixation_4","","","","","",""
"451.1000000014901","arrows.png","40","image-keyboard-response","120","262006","0.0-32.0-7.9","","","test","uparrow","0","1","FALSE","FALSE","false"
"null","<p style=""color: red; font-size:300%;"">incorrect: $0</p>","null","html-keyboard-response","121","263266","0.0-32.0-8.9","","","","","","","","",""
"null","<div style=""font-size:60px;""> </div>","null","html-keyboard-response","122","264076","0.0-32.0-0.10","","","fixation_1","","","","","",""
"null","","null","image-keyboard-response","123","264082","0.0-32.0-1.10","","","test","rightarrow","0","1","FALSE","FALSE",""
"null","<div style=""font-size:60px;""> </div>","null","html-keyboard-response","124","264385","0.0-32.0-2.10","","","fixation_2","","","","","",""
"null","img_1.bmp","null","image-keyboard-response","125","265389","0.0-32.0-3.10","","","img_on","","","","","",""
"null","<div style=""font-size:60px;""> </div>","null","html-keyboard-response","126","265691","0.0-32.0-4.10","","","fixation_3","","","","","",""
"null","","null","html-keyboard-response","127","265697","0.0-32.0-5.10","","","test","rightarrow","0","1","FALSE","FALSE",""
"null","<div style=""font-size:60px;""> </div>","null","html-keyboard-response","128","266000","0.0-32.0-6.10","","","fixation_4","","","","","",""
"580.4000000059605","arrows.png","39","image-keyboard-response","129","266581","0.0-32.0-7.10","","","test","rightarrow","0","1","FALSE","FALSE","true"
"null","<p style=""color: green; font-size:300%;"">correct: $2.50</p>","null","html-keyboard-response","130","267839","0.0-32.0-8.10","","","","","","","","",""
"null","<div style=""font-size:60px;""> </div>","null","html-keyboard-response","131","268896","0.0-32.0-0.11","","","fixation_1","","","","","",""
"null","","null","image-keyboard-response","132","268902","0.0-32.0-1.11","","","test","leftarrow","1","1","FALSE","FALSE",""
"null","<div style=""font-size:60px;""> </div>","null","html-keyboard-response","133","269203","0.0-32.0-2.11","","","fixation_2","","","","","",""
"null","img_3.bmp","null","image-keyboard-response","134","270208","0.0-32.0-3.11","","","img_on","","","","","",""
"null","<div style=""font-size:60px;""> </div>","null","html-keyboard-response","135","270510","0.0-32.0-4.11","","","fixation_3","","","","","",""
"null","","null","html-keyboard-response","136","270516","0.0-32.0-5.11","","","test","leftarrow","1","1","FALSE","FALSE",""
"null","<div style=""font-size:60px;""> </div>","null","html-keyboard-response","137","270820","0.0-32.0-6.11","","","fixation_4","","","","","",""
"696.0999999940395","arrows.png","37","image-keyboard-response","138","271518","0.0-32.0-7.11","","","test","leftarrow","1","1","FALSE","FALSE","true"
"null","<p style=""color: green; font-size:300%;"">correct: $7.50</p>","null","html-keyboard-response","139","272776","0.0-32.0-8.11","","","","","","","","",""
"null","<div style=""font-size:60px;""> </div>","null","html-keyboard-response","140","273580","0.0-32.0-0.12","","","fixation_1","","","","","",""
"null","","null","image-keyboard-response","141","273586","0.0-32.0-1.12","","","test","downarrow","1","1","FALSE","FALSE",""
"null","<div style=""font-size:60px;""> </div>","null","html-keyboard-response","142","273888","0.0-32.0-2.12","","","fixation_2","","","","","",""
"null","img_2.bmp","null","image-keyboard-response","143","274892","0.0-32.0-3.12","","","img_on","","","","","",""
"null","<div style=""font-size:60px;""> </div>","null","html-keyboard-response","144","275196","0.0-32.0-4.12","","","fixation_3","","","","","",""
"null","","null","html-keyboard-response","145","275202","0.0-32.0-5.12","","","test","downarrow","1","1","FALSE","FALSE",""
"null","<div style=""font-size:60px;""> </div>","null","html-keyboard-response","146","275508","0.0-32.0-6.12","","","fixation_4","","","","","",""
"320.6000000014901","arrows.png","40","image-keyboard-response","147","275830","0.0-32.0-7.12","","","test","downarrow","1","1","FALSE","FALSE","true"
"null","<p style=""color: green; font-size:300%;"">correct: $7.50</p>","null","html-keyboard-response","148","277086","0.0-32.0-8.12","","","","","","","","",""
"null","<div style=""font-size:60px;""> </div>","null","html-keyboard-response","149","277896","0.0-32.0-0.13","","","fixation_1","","","","","",""
"null","","null","image-keyboard-response","150","277902","0.0-32.0-1.13","","","test","rightarrow","0","1","FALSE","FALSE",""
"null","<div style=""font-size:60px;""> </div>","null","html-keyboard-response","151","278208","0.0-32.0-2.13","","","fixation_2","","","","","",""
"null","img_1.bmp","null","image-keyboard-response","152","279212","0.0-32.0-3.13","","","img_on","","","","","",""
"null","<div style=""font-size:60px;""> </div>","null","html-keyboard-response","153","279516","0.0-32.0-4.13","","","fixation_3","","","","","",""
"null","","null","html-keyboard-response","154","279522","0.0-32.0-5.13","","","test","rightarrow","0","1","FALSE","FALSE",""
"null","<div style=""font-size:60px;""> </div>","null","html-keyboard-response","155","279827","0.0-32.0-6.13","","","fixation_4","","","","","",""
"281.5","arrows.png","39","image-keyboard-response","156","280111","0.0-32.0-7.13","","","test","rightarrow","0","1","FALSE","FALSE","true"
"null","<p style=""color: green; font-size:300%;"">correct: $2.50</p>","null","html-keyboard-response","157","281372","0.0-32.0-8.13","","","","","","","","",""
"null","<div style=""font-size:60px;""> </div>","null","html-keyboard-response","158","282678","0.0-32.0-0.14","","","fixation_1","","","","","",""
"null","","null","image-keyboard-response","159","282685","0.0-32.0-1.14","","","test","leftarrow","1","1","FALSE","FALSE",""
"null","<div style=""font-size:60px;""> </div>","null","html-keyboard-response","160","282991","0.0-32.0-2.14","","","fixation_2","","","","","",""
"null","img_3.bmp","null","image-keyboard-response","161","283996","0.0-32.0-3.14","","","img_on","","","","","",""
"null","<div style=""font-size:60px;""> </div>","null","html-keyboard-response","162","284298","0.0-32.0-4.14","","","fixation_3","","","","","",""
"null","","null","html-keyboard-response","163","284304","0.0-32.0-5.14","","","test","leftarrow","1","1","FALSE","FALSE",""
"null","<div style=""font-size:60px;""> </div>","null","html-keyboard-response","164","284611","0.0-32.0-6.14","","","fixation_4","","","","","",""
"474.69999999552965","arrows.png","37","image-keyboard-response","165","285087","0.0-32.0-7.14","","","test","leftarrow","1","1","FALSE","FALSE","true"
"null","<p style=""color: green; font-size:300%;"">correct: $7.50</p>","null","html-keyboard-response","166","286346","0.0-32.0-8.14","","","","","","","","",""
"null","<div style=""font-size:60px;""> </div>","null","html-keyboard-response","167","287404","0.0-32.0-0.15","","","fixation_1","","","","","",""
"null","switch_cue.png","null","image-keyboard-response","168","288412","0.0-32.0-1.15","","","test","uparrow","0","1","TRUE","TRUE",""
"null","<div style=""font-size:60px;""> </div>","null","html-keyboard-response","169","288716","0.0-32.0-2.15","","","fixation_2","","","","","",""
"null","img_4.bmp","null","image-keyboard-response","170","289720","0.0-32.0-3.15","","","img_on","","","","","",""
"null","<div style=""font-size:60px;""> </div>","null","html-keyboard-response","171","290024","0.0-32.0-4.15","","","fixation_3","","","","","",""
"null","<img src=""CC1.png"" width=200 height=200/>","null","html-keyboard-response","172","291026","0.0-32.0-5.15","","","test","uparrow","0","1","TRUE","TRUE",""
"null","<div style=""font-size:60px;""> </div>","null","html-keyboard-response","173","291328","0.0-32.0-6.15","","","fixation_4","","","","","",""
"331.8999999985099","arrows.png","38","image-keyboard-response","174","291662","0.0-32.0-7.15","","","test","uparrow","0","1","TRUE","TRUE","true"
"null","<p style=""color: green; font-size:300%;"">correct: $2.50</p>","null","html-keyboard-response","175","292920","0.0-32.0-8.15","","","","","","","","",""
"null","<div style=""font-size:60px;""> </div>","null","html-keyboard-response","176","293476","0.0-32.0-0.16","","","fixation_1","","","","","",""
"null","switch_cue.png","null","image-keyboard-response","177","294480","0.0-32.0-1.16","","","test","uparrow","0","1","TRUE","TRUE",""
"null","<div style=""font-size:60px;""> </div>","null","html-keyboard-response","178","294785","0.0-32.0-2.16","","","fixation_2","","","","","",""
"null","img_4.bmp","null","image-keyboard-response","179","295789","0.0-32.0-3.16","","","img_on","","","","","",""
"null","<div style=""font-size:60px;""> </div>","null","html-keyboard-response","180","296092","0.0-32.0-4.16","","","fixation_3","","","","","",""
"null","<img src=""CC1.png"" width=200 height=200/>","null","html-keyboard-response","181","297097","0.0-32.0-5.16","","","test","uparrow","0","1","TRUE","TRUE",""
"null","<div style=""font-size:60px;""> </div>","null","html-keyboard-response","182","297400","0.0-32.0-6.16","","","fixation_4","","","","","",""
"285.29999999701977","arrows.png","38","image-keyboard-response","183","297687","0.0-32.0-7.16","","","test","uparrow","0","1","TRUE","TRUE","true"
"null","<p style=""color: green; font-size:300%;"">correct: $2.50</p>","null","html-keyboard-response","184","298943","0.0-32.0-8.16","","","","","","","","",""
"null","<div style=""font-size:60px;""> </div>","null","html-keyboard-response","185","299496","0.0-32.0-0.17","","","fixation_1","","","","","",""
"null","switch_cue.png","null","image-keyboard-response","186","300500","0.0-32.0-1.17","","","test","downarrow","1","1","TRUE","TRUE",""
"null","<div style=""font-size:60px;""> </div>","null","html-keyboard-response","187","300802","0.0-32.0-2.17","","","fixation_2","","","","","",""
"null","img_2.bmp","null","image-keyboard-response","188","301804","0.0-32.0-3.17","","","img_on","","","","","",""
"null","<div style=""font-size:60px;""> </div>","null","html-keyboard-response","189","302109","0.0-32.0-4.17","","","fixation_3","","","","","",""
"null","<img src=""CC1.png"" width=200 height=200/>","null","html-keyboard-response","190","303113","0.0-32.0-5.17","","","test","downarrow","1","1","TRUE","TRUE",""
"null","<div style=""font-size:60px;""> </div>","null","html-keyboard-response","191","303414","0.0-32.0-6.17","","","fixation_4","","","","","",""
"559.1000000014901","arrows.png","40","image-keyboard-response","192","303975","0.0-32.0-7.17","","","test","downarrow","1","1","TRUE","TRUE","true"
"null","<p style=""color: green; font-size:300%;"">correct: $7.50</p>","null","html-keyboard-response","193","305233","0.0-32.0-8.17","","","","","","","","",""
"null","<div style=""font-size:60px;""> </div>","null","html-keyboard-response","194","306789","0.0-32.0-0.18","","","fixation_1","","","","","",""
"null","switch_cue.png","null","image-keyboard-response","195","307796","0.0-32.0-1.18","","","test","rightarrow","0","1","TRUE","TRUE",""
"null","<div style=""font-size:60px;""> </div>","null","html-keyboard-response","196","308100","0.0-32.0-2.18","","","fixation_2","","","","","",""
"null","img_1.bmp","null","image-keyboard-response","197","309105","0.0-32.0-3.18","","","img_on","","","","","",""
"null","<div style=""font-size:60px;""> </div>","null","html-keyboard-response","198","309409","0.0-32.0-4.18","","","fixation_3","","","","","",""
"null","<img src=""CC1.png"" width=200 height=200/>","null","html-keyboard-response","199","310414","0.0-32.0-5.18","","","test","rightarrow","0","1","TRUE","TRUE",""
"null","<div style=""font-size:60px;""> </div>","null","html-keyboard-response","200","310717","0.0-32.0-6.18","","","fixation_4","","","","","",""
"1609","arrows.png","39","image-keyboard-response","201","312327","0.0-32.0-7.18","","","test","rightarrow","0","1","TRUE","TRUE","true"
"null","<p style=""color: green; font-size:300%;"">correct: $2.50</p>","null","html-keyboard-response","202","313584","0.0-32.0-8.18","","","","","","","","",""
"null","<div style=""font-size:60px;""> </div>","null","html-keyboard-response","203","314141","0.0-32.0-0.19","","","fixation_1","","","","","",""
"null","switch_cue.png","null","image-keyboard-response","204","315145","0.0-32.0-1.19","","","test","leftarrow","1","1","TRUE","TRUE",""
"null","<div style=""font-size:60px;""> </div>","null","html-keyboard-response","205","315449","0.0-32.0-2.19","","","fixation_2","","","","","",""
"null","img_3.bmp","null","image-keyboard-response","206","316451","0.0-32.0-3.19","","","img_on","","","","","",""
"null","<div style=""font-size:60px;""> </div>","null","html-keyboard-response","207","316753","0.0-32.0-4.19","","","fixation_3","","","","","",""
"null","<img src=""CC1.png"" width=200 height=200/>","null","html-keyboard-response","208","317757","0.0-32.0-5.19","","","test","leftarrow","1","1","TRUE","TRUE",""
"null","<div style=""font-size:60px;""> </div>","null","html-keyboard-response","209","318061","0.0-32.0-6.19","","","fixation_4","","","","","",""
"408.5","arrows.png","37","image-keyboard-response","210","318471","0.0-32.0-7.19","","","test","leftarrow","1","1","TRUE","TRUE","true"
"null","<p style=""color: green; font-size:300%;"">correct: $7.50</p>","null","html-keyboard-response","211","319729","0.0-32.0-8.19","","","","","","","","",""
"null","<div style=""font-size:60px;""> </div>","null","html-keyboard-response","212","321037","0.0-32.0-0.20","","","fixation_1","","","","","",""
"null","switch_cue.png","null","image-keyboard-response","213","322041","0.0-32.0-1.20","","","test","uparrow","1","2","TRUE","TRUE",""
"null","<div style=""font-size:60px;""> </div>","null","html-keyboard-response","214","322346","0.0-32.0-2.20","","","fixation_2","","","","","",""
"null","img_1.bmp","null","image-keyboard-response","215","323349","0.0-32.0-3.20","","","img_on","","","","","",""
"null","<div style=""font-size:60px;""> </div>","null","html-keyboard-response","216","323653","0.0-32.0-4.20","","","fixation_3","","","","","",""
"null","<img src=""CC2.png"" width=200 height=200/>","null","html-keyboard-response","217","324657","0.0-32.0-5.20","","","test","uparrow","1","2","TRUE","TRUE",""
"null","<div style=""font-size:60px;""> </div>","null","html-keyboard-response","218","324961","0.0-32.0-6.20","","","fixation_4","","","","","",""
"1508.8999999985099","arrows.png","40","image-keyboard-response","219","326472","0.0-32.0-7.20","","","test","uparrow","1","2","TRUE","TRUE","false"
"null","<p style=""color: red; font-size:300%;"">incorrect: $0</p>","null","html-keyboard-response","220","327731","0.0-32.0-8.20","","","","","","","","",""
"null","<div style=""font-size:60px;""> </div>","null","html-keyboard-response","221","328538","0.0-32.0-0.21","","","fixation_1","","","","","",""
"null","","null","image-keyboard-response","222","328543","0.0-32.0-1.21","","","test","leftarrow","0","2","TRUE","FALSE",""
"null","<div style=""font-size:60px;""> </div>","null","html-keyboard-response","223","328845","0.0-32.0-2.21","","","fixation_2","","","","","",""
"null","img_4.bmp","null","image-keyboard-response","224","329850","0.0-32.0-3.21","","","img_on","","","","","",""
"null","<div style=""font-size:60px;""> </div>","null","html-keyboard-response","225","330155","0.0-32.0-4.21","","","fixation_3","","","","","",""
"null","<img src=""CC2.png"" width=200 height=200/>","null","html-keyboard-response","226","331157","0.0-32.0-5.21","","","test","leftarrow","0","2","TRUE","FALSE",""
"null","<div style=""font-size:60px;""> </div>","null","html-keyboard-response","227","331459","0.0-32.0-6.21","","","fixation_4","","","","","",""
"914.7999999970198","arrows.png","40","image-keyboard-response","228","332375","0.0-32.0-7.21","","","test","leftarrow","0","2","TRUE","FALSE","false"
"null","<p style=""color: red; font-size:300%;"">incorrect: $0</p>","null","html-keyboard-response","229","333635","0.0-32.0-8.21","","","","","","","","",""
"null","<div style=""font-size:60px;""> </div>","null","html-keyboard-response","230","334692","0.0-32.0-0.22","","","fixation_1","","","","","",""
"null","","null","image-keyboard-response","231","334698","0.0-32.0-1.22","","","test","rightarrow","1","2","TRUE","FALSE",""
"null","<div style=""font-size:60px;""> </div>","null","html-keyboard-response","232","335000","0.0-32.0-2.22","","","fixation_2","","","","","",""
"null","img_2.bmp","null","image-keyboard-response","233","336004","0.0-32.0-3.22","","","img_on","","","","","",""
"null","<div style=""font-size:60px;""> </div>","null","html-keyboard-response","234","336305","0.0-32.0-4.22","","","fixation_3","","","","","",""
"null","<img src=""CC2.png"" width=200 height=200/>","null","html-keyboard-response","235","337309","0.0-32.0-5.22","","","test","rightarrow","1","2","TRUE","FALSE",""
"null","<div style=""font-size:60px;""> </div>","null","html-keyboard-response","236","337613","0.0-32.0-6.22","","","fixation_4","","","","","",""
"1897.5","arrows.png","38","image-keyboard-response","237","339512","0.0-32.0-7.22","","","test","rightarrow","1","2","TRUE","FALSE","false"
"null","<p style=""color: red; font-size:300%;"">incorrect: $0</p>","null","html-keyboard-response","238","340769","0.0-32.0-8.22","","","","","","","","",""
"null","<div style=""font-size:60px;""> </div>","null","html-keyboard-response","239","342326","0.0-32.0-0.23","","","fixation_1","","","","","",""
"null","","null","image-keyboard-response","240","342331","0.0-32.0-1.23","","","test","downarrow","0","2","TRUE","FALSE",""
"null","<div style=""font-size:60px;""> </div>","null","html-keyboard-response","241","342634","0.0-32.0-2.23","","","fixation_2","","","","","",""
"null","img_3.bmp","null","image-keyboard-response","242","343638","0.0-32.0-3.23","","","img_on","","","","","",""
"null","<div style=""font-size:60px;""> </div>","null","html-keyboard-response","243","343942","0.0-32.0-4.23","","","fixation_3","","","","","",""
"null","<img src=""CC2.png"" width=200 height=200/>","null","html-keyboard-response","244","344946","0.0-32.0-5.23","","","test","downarrow","0","2","TRUE","FALSE",""
"null","<div style=""font-size:60px;""> </div>","null","html-keyboard-response","245","345250","0.0-32.0-6.23","","","fixation_4","","","","","",""
"396.19999999552965","arrows.png","39","image-keyboard-response","246","345648","0.0-32.0-7.23","","","test","downarrow","0","2","TRUE","FALSE","false"
"null","<p style=""color: red; font-size:300%;"">incorrect: $0</p>","null","html-keyboard-response","247","346906","0.0-32.0-8.23","","","","","","","","",""
"null","<div style=""font-size:60px;""> </div>","null","html-keyboard-response","248","348462","0.0-32.0-0.24","","","fixation_1","","","","","",""
"null","","null","image-keyboard-response","249","348468","0.0-32.0-1.24","","","test","downarrow","0","2","FALSE","FALSE",""
"null","<div style=""font-size:60px;""> </div>","null","html-keyboard-response","250","348770","0.0-32.0-2.24","","","fixation_2","","","","","",""
"null","img_3.bmp","null","image-keyboard-response","251","349774","0.0-32.0-3.24","","","img_on","","","","","",""
"null","<div style=""font-size:60px;""> </div>","null","html-keyboard-response","252","350078","0.0-32.0-4.24","","","fixation_3","","","","","",""
"null","","null","html-keyboard-response","253","350084","0.0-32.0-5.24","","","test","downarrow","0","2","FALSE","FALSE",""
"null","<div style=""font-size:60px;""> </div>","null","html-keyboard-response","254","350389","0.0-32.0-6.24","","","fixation_4","","","","","",""
"929.8999999985099","arrows.png","40","image-keyboard-response","255","351320","0.0-32.0-7.24","","","test","downarrow","0","2","FALSE","FALSE","true"
"null","<p style=""color: green; font-size:300%;"">correct: $2.50</p>","null","html-keyboard-response","256","352577","0.0-32.0-8.24","","","","","","","","",""
"null","<div style=""font-size:60px;""> </div>","null","html-keyboard-response","257","353384","0.0-32.0-0.25","","","fixation_1","","","","","",""
"null","","null","image-keyboard-response","258","353390","0.0-32.0-1.25","","","test","uparrow","1","2","FALSE","FALSE",""
"null","<div style=""font-size:60px;""> </div>","null","html-keyboard-response","259","353694","0.0-32.0-2.25","","","fixation_2","","","","","",""
"null","img_1.bmp","null","image-keyboard-response","260","354696","0.0-32.0-3.25","","","img_on","","","","","",""
"null","<div style=""font-size:60px;""> </div>","null","html-keyboard-response","261","354998","0.0-32.0-4.25","","","fixation_3","","","","","",""
"null","","null","html-keyboard-response","262","355003","0.0-32.0-5.25","","","test","uparrow","1","2","FALSE","FALSE",""
"null","<div style=""font-size:60px;""> </div>","null","html-keyboard-response","263","355306","0.0-32.0-6.25","","","fixation_4","","","","","",""
"1260.6000000014901","arrows.png","38","image-keyboard-response","264","356568","0.0-32.0-7.25","","","test","uparrow","1","2","FALSE","FALSE","true"
"null","<p style=""color: green; font-size:300%;"">correct: $7.50</p>","null","html-keyboard-response","265","357825","0.0-32.0-8.25","","","","","","","","",""
"null","<div style=""font-size:60px;""> </div>","null","html-keyboard-response","266","359134","0.0-32.0-0.26","","","fixation_1","","","","","",""
"null","","null","image-keyboard-response","267","359140","0.0-32.0-1.26","","","test","rightarrow","1","2","FALSE","FALSE",""
"null","<div style=""font-size:60px;""> </div>","null","html-keyboard-response","268","359445","0.0-32.0-2.26","","","fixation_2","","","","","",""
"null","img_2.bmp","null","image-keyboard-response","269","360451","0.0-32.0-3.26","","","img_on","","","","","",""
"null","<div style=""font-size:60px;""> </div>","null","html-keyboard-response","270","360752","0.0-32.0-4.26","","","fixation_3","","","","","",""
"null","","null","html-keyboard-response","271","360758","0.0-32.0-5.26","","","test","rightarrow","1","2","FALSE","FALSE",""
"null","<div style=""font-size:60px;""> </div>","null","html-keyboard-response","272","361061","0.0-32.0-6.26","","","fixation_4","","","","","",""
"930","arrows.png","39","image-keyboard-response","273","361992","0.0-32.0-7.26","","","test","rightarrow","1","2","FALSE","FALSE","true"
"null","<p style=""color: green; font-size:300%;"">correct: $7.50</p>","null","html-keyboard-response","274","363253","0.0-32.0-8.26","","","","","","","","",""
"null","<div style=""font-size:60px;""> </div>","null","html-keyboard-response","275","364310","0.0-32.0-0.27","","","fixation_1","","","","","",""
"null","","null","image-keyboard-response","276","364316","0.0-32.0-1.27","","","test","leftarrow","0","2","FALSE","FALSE",""
"null","<div style=""font-size:60px;""> </div>","null","html-keyboard-response","277","364618","0.0-32.0-2.27","","","fixation_2","","","","","",""
"null","img_4.bmp","null","image-keyboard-response","278","365623","0.0-32.0-3.27","","","img_on","","","","","",""
"null","<div style=""font-size:60px;""> </div>","null","html-keyboard-response","279","365927","0.0-32.0-4.27","","","fixation_3","","","","","",""
"null","","null","html-keyboard-response","280","365932","0.0-32.0-5.27","","","test","leftarrow","0","2","FALSE","FALSE",""
"null","<div style=""font-size:60px;""> </div>","null","html-keyboard-response","281","366236","0.0-32.0-6.27","","","fixation_4","","","","","",""
"442.79999999701977","arrows.png","40","image-keyboard-response","282","366680","0.0-32.0-7.27","","","test","leftarrow","0","2","FALSE","FALSE","false"
"null","<p style=""color: red; font-size:300%;"">incorrect: $0</p>","null","html-keyboard-response","283","367939","0.0-32.0-8.27","","","","","","","","",""
"null","<div style=""font-size:60px;""> </div>","null","html-keyboard-response","284","369493","0.0-32.0-0.28","","","fixation_1","","","","","",""
"null","","null","image-keyboard-response","285","369499","0.0-32.0-1.28","","","test","rightarrow","1","2","FALSE","FALSE",""
"null","<div style=""font-size:60px;""> </div>","null","html-keyboard-response","286","369803","0.0-32.0-2.28","","","fixation_2","","","","","",""
"null","img_2.bmp","null","image-keyboard-response","287","370807","0.0-32.0-3.28","","","img_on","","","","","",""
"null","<div style=""font-size:60px;""> </div>","null","html-keyboard-response","288","371108","0.0-32.0-4.28","","","fixation_3","","","","","",""
"null","","null","html-keyboard-response","289","371114","0.0-32.0-5.28","","","test","rightarrow","1","2","FALSE","FALSE",""
"null","<div style=""font-size:60px;""> </div>","null","html-keyboard-response","290","371419","0.0-32.0-6.28","","","fixation_4","","","","","",""
"1628.7000000029802","arrows.png","40","image-keyboard-response","291","373049","0.0-32.0-7.28","","","test","rightarrow","1","2","FALSE","FALSE","false"
"null","<p style=""color: red; font-size:300%;"">incorrect: $0</p>","null","html-keyboard-response","292","374307","0.0-32.0-8.28","","","","","","","","",""
"null","<div style=""font-size:60px;""> </div>","null","html-keyboard-response","293","375115","0.0-32.0-0.29","","","fixation_1","","","","","",""
"null","","null","image-keyboard-response","294","375121","0.0-32.0-1.29","","","test","downarrow","0","2","FALSE","FALSE",""
"null","<div style=""font-size:60px;""> </div>","null","html-keyboard-response","295","375426","0.0-32.0-2.29","","","fixation_2","","","","","",""
"null","img_3.bmp","null","image-keyboard-response","296","376430","0.0-32.0-3.29","","","img_on","","","","","",""
"null","<div style=""font-size:60px;""> </div>","null","html-keyboard-response","297","376732","0.0-32.0-4.29","","","fixation_3","","","","","",""
"null","","null","html-keyboard-response","298","376738","0.0-32.0-5.29","","","test","downarrow","0","2","FALSE","FALSE",""
"null","<div style=""font-size:60px;""> </div>","null","html-keyboard-response","299","377040","0.0-32.0-6.29","","","fixation_4","","","","","",""
"1151.5","arrows.png","39","image-keyboard-response","300","378193","0.0-32.0-7.29","","","test","downarrow","0","2","FALSE","FALSE","false"
"null","<p style=""color: red; font-size:300%;"">incorrect: $0</p>","null","html-keyboard-response","301","379449","0.0-32.0-8.29","","","","","","","","",""
"null","<div style=""font-size:60px;""> </div>","null","html-keyboard-response","302","380007","0.0-32.0-0.30","","","fixation_1","","","","","",""
"null","","null","image-keyboard-response","303","380012","0.0-32.0-1.30","","","test","uparrow","1","2","FALSE","FALSE",""
"null","<div style=""font-size:60px;""> </div>","null","html-keyboard-response","304","380315","0.0-32.0-2.30","","","fixation_2","","","","","",""
"null","img_1.bmp","null","image-keyboard-response","305","381320","0.0-32.0-3.30","","","img_on","","","","","",""
"null","<div style=""font-size:60px;""> </div>","null","html-keyboard-response","306","381623","0.0-32.0-4.30","","","fixation_3","","","","","",""
"null","","null","html-keyboard-response","307","381629","0.0-32.0-5.30","","","test","uparrow","1","2","FALSE","FALSE",""
"null","<div style=""font-size:60px;""> </div>","null","html-keyboard-response","308","381934","0.0-32.0-6.30","","","fixation_4","","","","","",""
"450","arrows.png","37","image-keyboard-response","309","382385","0.0-32.0-7.30","","","test","uparrow","1","2","FALSE","FALSE","false"
"null","<p style=""color: red; font-size:300%;"">incorrect: $0</p>","null","html-keyboard-response","310","383643","0.0-32.0-8.30","","","","","","","","",""
"null","<div style=""font-size:60px;""> </div>","null","html-keyboard-response","311","384198","0.0-32.0-0.31","","","fixation_1","","","","","",""
"null","","null","image-keyboard-response","312","384206","0.0-32.0-1.31","","","test","leftarrow","0","2","FALSE","FALSE",""
"null","<div style=""font-size:60px;""> </div>","null","html-keyboard-response","313","384511","0.0-32.0-2.31","","","fixation_2","","","","","",""
"null","img_4.bmp","null","image-keyboard-response","314","385515","0.0-32.0-3.31","","","img_on","","","","","",""
"null","<div style=""font-size:60px;""> </div>","null","html-keyboard-response","315","385819","0.0-32.0-4.31","","","fixation_3","","","","","",""
"null","","null","html-keyboard-response","316","385825","0.0-32.0-5.31","","","test","leftarrow","0","2","FALSE","FALSE",""
"null","<div style=""font-size:60px;""> </div>","null","html-keyboard-response","317","386126","0.0-32.0-6.31","","","fixation_4","","","","","",""
"1338.2000000029802","arrows.png","39","image-keyboard-response","318","387465","0.0-32.0-7.31","","","test","leftarrow","0","2","FALSE","FALSE","false"
"null","<p style=""color: red; font-size:300%;"">incorrect: $0</p>","null","html-keyboard-response","319","388720","0.0-32.0-8.31","","","","","","","","",""
"null","<div style=""font-size:60px;""> </div>","null","html-keyboard-response","320","390275","0.0-32.0-0.32","","","fixation_1","","","","","",""
"null","","null","image-keyboard-response","321","390282","0.0-32.0-1.32","","","test","downarrow","0","2","FALSE","FALSE",""
"null","<div style=""font-size:60px;""> </div>","null","html-keyboard-response","322","390584","0.0-32.0-2.32","","","fixation_2","","","","","",""
"null","img_3.bmp","null","image-keyboard-response","323","391587","0.0-32.0-3.32","","","img_on","","","","","",""
"null","<div style=""font-size:60px;""> </div>","null","html-keyboard-response","324","391892","0.0-32.0-4.32","","","fixation_3","","","","","",""
"null","","null","html-keyboard-response","325","391897","0.0-32.0-5.32","","","test","downarrow","0","2","FALSE","FALSE",""
"null","<div style=""font-size:60px;""> </div>","null","html-keyboard-response","326","392203","0.0-32.0-6.32","","","fixation_4","","","","","",""
"724.7999999970198","arrows.png","40","image-keyboard-response","327","392929","0.0-32.0-7.32","","","test","downarrow","0","2","FALSE","FALSE","true"
"null","<p style=""color: green; font-size:300%;"">correct: $2.50</p>","null","html-keyboard-response","328","394188","0.0-32.0-8.32","","","","","","","","",""
"null","<div style=""font-size:60px;""> </div>","null","html-keyboard-response","329","395248","0.0-32.0-0.33","","","fixation_1","","","","","",""
"null","","null","image-keyboard-response","330","395253","0.0-32.0-1.33","","","test","leftarrow","0","2","FALSE","FALSE",""
"null","<div style=""font-size:60px;""> </div>","null","html-keyboard-response","331","395558","0.0-32.0-2.33","","","fixation_2","","","","","",""
"null","img_4.bmp","null","image-keyboard-response","332","396564","0.0-32.0-3.33","","","img_on","","","","","",""
"null","<div style=""font-size:60px;""> </div>","null","html-keyboard-response","333","396867","0.0-32.0-4.33","","","fixation_3","","","","","",""
"null","","null","html-keyboard-response","334","396872","0.0-32.0-5.33","","","test","leftarrow","0","2","FALSE","FALSE",""
"null","<div style=""font-size:60px;""> </div>","null","html-keyboard-response","335","397178","0.0-32.0-6.33","","","fixation_4","","","","","",""
"279.1000000014901","arrows.png","37","image-keyboard-response","336","397459","0.0-32.0-7.33","","","test","leftarrow","0","2","FALSE","FALSE","true"
"null","<p style=""color: green; font-size:300%;"">correct: $2.50</p>","null","html-keyboard-response","337","398716","0.0-32.0-8.33","","","","","","","","",""
"null","<div style=""font-size:60px;""> </div>","null","html-keyboard-response","338","400024","0.0-32.0-0.34","","","fixation_1","","","","","",""
"null","","null","image-keyboard-response","339","400029","0.0-32.0-1.34","","","test","uparrow","1","2","FALSE","FALSE",""
"null","<div style=""font-size:60px;""> </div>","null","html-keyboard-response","340","400331","0.0-32.0-2.34","","","fixation_2","","","","","",""
"null","img_1.bmp","null","image-keyboard-response","341","401335","0.0-32.0-3.34","","","img_on","","","","","",""
"null","<div style=""font-size:60px;""> </div>","null","html-keyboard-response","342","401637","0.0-32.0-4.34","","","fixation_3","","","","","",""
"null","","null","html-keyboard-response","343","401643","0.0-32.0-5.34","","","test","uparrow","1","2","FALSE","FALSE",""
"null","<div style=""font-size:60px;""> </div>","null","html-keyboard-response","344","401945","0.0-32.0-6.34","","","fixation_4","","","","","",""
"304.09999999403954","arrows.png","38","image-keyboard-response","345","402250","0.0-32.0-7.34","","","test","uparrow","1","2","FALSE","FALSE","true"
"null","<p style=""color: green; font-size:300%;"">correct: $7.50</p>","null","html-keyboard-response","346","403506","0.0-32.0-8.34","","","","","","","","",""
"null","<div style=""font-size:60px;""> </div>","null","html-keyboard-response","347","404063","0.0-32.0-0.35","","","fixation_1","","","","","",""
"null","","null","image-keyboard-response","348","404069","0.0-32.0-1.35","","","test","rightarrow","1","2","FALSE","FALSE",""
"null","<div style=""font-size:60px;""> </div>","null","html-keyboard-response","349","404372","0.0-32.0-2.35","","","fixation_2","","","","","",""
"null","img_2.bmp","null","image-keyboard-response","350","405376","0.0-32.0-3.35","","","img_on","","","","","",""
"null","<div style=""font-size:60px;""> </div>","null","html-keyboard-response","351","405678","0.0-32.0-4.35","","","fixation_3","","","","","",""
"null","","null","html-keyboard-response","352","405683","0.0-32.0-5.35","","","test","rightarrow","1","2","FALSE","FALSE",""
"null","<div style=""font-size:60px;""> </div>","null","html-keyboard-response","353","405990","0.0-32.0-6.35","","","fixation_4","","","","","",""
"314","arrows.png","39","image-keyboard-response","354","406306","0.0-32.0-7.35","","","test","rightarrow","1","2","FALSE","FALSE","true"
"null","<p style=""color: green; font-size:300%;"">correct: $7.50</p>","null","html-keyboard-response","355","407563","0.0-32.0-8.35","","","","","","","","",""
"null","<div style=""font-size:60px;""> </div>","null","html-keyboard-response","356","408620","0.0-32.0-0.36","","","fixation_1","","","","","",""
"null","","null","image-keyboard-response","357","408626","0.0-32.0-1.36","","","test","downarrow","0","2","FALSE","FALSE",""
"null","<div style=""font-size:60px;""> </div>","null","html-keyboard-response","358","408928","0.0-32.0-2.36","","","fixation_2","","","","","",""
"null","img_3.bmp","null","image-keyboard-response","359","409932","0.0-32.0-3.36","","","img_on","","","","","",""
"null","<div style=""font-size:60px;""> </div>","null","html-keyboard-response","360","410235","0.0-32.0-4.36","","","fixation_3","","","","","",""
"null","","null","html-keyboard-response","361","410240","0.0-32.0-5.36","","","test","downarrow","0","2","FALSE","FALSE",""
"null","<div style=""font-size:60px;""> </div>","null","html-keyboard-response","362","410543","0.0-32.0-6.36","","","fixation_4","","","","","",""
"361.5","arrows.png","40","image-keyboard-response","363","410906","0.0-32.0-7.36","","","test","downarrow","0","2","FALSE","FALSE","true"
"null","<p style=""color: green; font-size:300%;"">correct: $2.50</p>","null","html-keyboard-response","364","412161","0.0-32.0-8.36","","","","","","","","",""
"null","<div style=""font-size:60px;""> </div>","null","html-keyboard-response","365","413218","0.0-32.0-0.37","","","fixation_1","","","","","",""
"null","","null","image-keyboard-response","366","413224","0.0-32.0-1.37","","","test","uparrow","1","2","FALSE","FALSE",""
"null","<div style=""font-size:60px;""> </div>","null","html-keyboard-response","367","413528","0.0-32.0-2.37","","","fixation_2","","","","","",""
"null","img_1.bmp","null","image-keyboard-response","368","414534","0.0-32.0-3.37","","","img_on","","","","","",""
"null","<div style=""font-size:60px;""> </div>","null","html-keyboard-response","369","414836","0.0-32.0-4.37","","","fixation_3","","","","","",""
"null","","null","html-keyboard-response","370","414842","0.0-32.0-5.37","","","test","uparrow","1","2","FALSE","FALSE",""
"null","<div style=""font-size:60px;""> </div>","null","html-keyboard-response","371","415145","0.0-32.0-6.37","","","fixation_4","","","","","",""
"383.79999999701977","arrows.png","38","image-keyboard-response","372","415530","0.0-32.0-7.37","","","test","uparrow","1","2","FALSE","FALSE","true"
"null","<p style=""color: green; font-size:300%;"">correct: $7.50</p>","null","html-keyboard-response","373","416788","0.0-32.0-8.37","","","","","","","","",""
"null","<div style=""font-size:60px;""> </div>","null","html-keyboard-response","374","418344","0.0-32.0-0.38","","","fixation_1","","","","","",""
"null","","null","image-keyboard-response","375","418349","0.0-32.0-1.38","","","test","leftarrow","0","2","FALSE","FALSE",""
"null","<div style=""font-size:60px;""> </div>","null","html-keyboard-response","376","418652","0.0-32.0-2.38","","","fixation_2","","","","","",""
"null","img_4.bmp","null","image-keyboard-response","377","419656","0.0-32.0-3.38","","","img_on","","","","","",""
"null","<div style=""font-size:60px;""> </div>","null","html-keyboard-response","378","419960","0.0-32.0-4.38","","","fixation_3","","","","","",""
"null","","null","html-keyboard-response","379","419966","0.0-32.0-5.38","","","test","leftarrow","0","2","FALSE","FALSE",""
"null","<div style=""font-size:60px;""> </div>","null","html-keyboard-response","380","420271","0.0-32.0-6.38","","","fixation_4","","","","","",""
"265.70000000298023","arrows.png","39","image-keyboard-response","381","420538","0.0-32.0-7.38","","","test","leftarrow","0","2","FALSE","FALSE","false"
"null","<p style=""color: red; font-size:300%;"">incorrect: $0</p>","null","html-keyboard-response","382","421792","0.0-32.0-8.38","","","","","","","","",""
"null","<div style=""font-size:60px;""> </div>","null","html-keyboard-response","383","422600","0.0-32.0-0.39","","","fixation_1","","","","","",""
"null","","null","image-keyboard-response","384","422606","0.0-32.0-1.39","","","test","rightarrow","1","2","FALSE","FALSE",""
"null","<div style=""font-size:60px;""> </div>","null","html-keyboard-response","385","422908","0.0-32.0-2.39","","","fixation_2","","","","","",""
"null","img_2.bmp","null","image-keyboard-response","386","423911","0.0-32.0-3.39","","","img_on","","","","","",""
"null","<div style=""font-size:60px;""> </div>","null","html-keyboard-response","387","424213","0.0-32.0-4.39","","","fixation_3","","","","","",""
"null","","null","html-keyboard-response","388","424218","0.0-32.0-5.39","","","test","rightarrow","1","2","FALSE","FALSE",""
"null","<div style=""font-size:60px;""> </div>","null","html-keyboard-response","389","424520","0.0-32.0-6.39","","","fixation_4","","","","","",""
"288","arrows.png","39","image-keyboard-response","390","424810","0.0-32.0-7.39","","","test","rightarrow","1","2","FALSE","FALSE","true"
"null","<p style=""color: green; font-size:300%;"">correct: $7.50</p>","null","html-keyboard-response","391","426064","0.0-32.0-8.39","","","","","","","","",""
"null","<div style=""font-size:60px;""> </div>","null","html-keyboard-response","392","427125","0.0-32.0-0.40","","","fixation_1","","","","","",""
"null","switch_cue.png","null","image-keyboard-response","393","428131","0.0-32.0-1.40","","","test","rightarrow","0","1","TRUE","TRUE",""
"null","<div style=""font-size:60px;""> </div>","null","html-keyboard-response","394","428436","0.0-32.0-2.40","","","fixation_2","","","","","",""
"null","img_1.bmp","null","image-keyboard-response","395","429440","0.0-32.0-3.40","","","img_on","","","","","",""
"null","<div style=""font-size:60px;""> </div>","null","html-keyboard-response","396","429745","0.0-32.0-4.40","","","fixation_3","","","","","",""
"null","<img src=""CC1.png"" width=200 height=200/>","null","html-keyboard-response","397","430749","0.0-32.0-5.40","","","test","rightarrow","0","1","TRUE","TRUE",""
"null","<div style=""font-size:60px;""> </div>","null","html-keyboard-response","398","431052","0.0-32.0-6.40","","","fixation_4","","","","","",""
"180.89999999850988","arrows.png","39","image-keyboard-response","399","431235","0.0-32.0-7.40","","","test","rightarrow","0","1","TRUE","TRUE","true"
"null","<p style=""color: green; font-size:300%;"">correct: $2.50</p>","null","html-keyboard-response","400","432491","0.0-32.0-8.40","","","","","","","","",""
"null","<div style=""font-size:60px;""> </div>","null","html-keyboard-response","401","433797","0.0-32.0-0.41","","","fixation_1","","","","","",""
"null","","null","image-keyboard-response","402","433803","0.0-32.0-1.41","","","test","uparrow","0","1","TRUE","FALSE",""
"null","<div style=""font-size:60px;""> </div>","null","html-keyboard-response","403","434105","0.0-32.0-2.41","","","fixation_2","","","","","",""
"null","img_4.bmp","null","image-keyboard-response","404","435109","0.0-32.0-3.41","","","img_on","","","","","",""
"null","<div style=""font-size:60px;""> </div>","null","html-keyboard-response","405","435412","0.0-32.0-4.41","","","fixation_3","","","","","",""
"null","<img src=""CC1.png"" width=200 height=200/>","null","html-keyboard-response","406","436417","0.0-32.0-5.41","","","test","uparrow","0","1","TRUE","FALSE",""
"null","<div style=""font-size:60px;""> </div>","null","html-keyboard-response","407","436723","0.0-32.0-6.41","","","fixation_4","","","","","",""
"446.29999999701977","arrows.png","38","image-keyboard-response","408","437171","0.0-32.0-7.41","","","test","uparrow","0","1","TRUE","FALSE","true"
"null","<p style=""color: green; font-size:300%;"">correct: $2.50</p>","null","html-keyboard-response","409","438429","0.0-32.0-8.41","","","","","","","","",""
"null","<div style=""font-size:60px;""> </div>","null","html-keyboard-response","410","439737","0.0-32.0-0.42","","","fixation_1","","","","","",""
"null","","null","image-keyboard-response","411","439743","0.0-32.0-1.42","","","test","leftarrow","1","1","TRUE","FALSE",""
"null","<div style=""font-size:60px;""> </div>","null","html-keyboard-response","412","440045","0.0-32.0-2.42","","","fixation_2","","","","","",""
"null","img_3.bmp","null","image-keyboard-response","413","441047","0.0-32.0-3.42","","","img_on","","","","","",""
"null","<div style=""font-size:60px;""> </div>","null","html-keyboard-response","414","441353","0.0-32.0-4.42","","","fixation_3","","","","","",""
"null","<img src=""CC1.png"" width=200 height=200/>","null","html-keyboard-response","415","442357","0.0-32.0-5.42","","","test","leftarrow","1","1","TRUE","FALSE",""
"null","<div style=""font-size:60px;""> </div>","null","html-keyboard-response","416","442661","0.0-32.0-6.42","","","fixation_4","","","","","",""
"324.5","arrows.png","37","image-keyboard-response","417","442987","0.0-32.0-7.42","","","test","leftarrow","1","1","TRUE","FALSE","true"
"null","<p style=""color: green; font-size:300%;"">correct: $7.50</p>","null","html-keyboard-response","418","444247","0.0-32.0-8.42","","","","","","","","",""
"null","<div style=""font-size:60px;""> </div>","null","html-keyboard-response","419","445557","0.0-32.0-0.43","","","fixation_1","","","","","",""
"null","","null","image-keyboard-response","420","445564","0.0-32.0-1.43","","","test","downarrow","1","1","TRUE","FALSE",""
"null","<div style=""font-size:60px;""> </div>","null","html-keyboard-response","421","445869","0.0-32.0-2.43","","","fixation_2","","","","","",""
"null","img_2.bmp","null","image-keyboard-response","422","446871","0.0-32.0-3.43","","","img_on","","","","","",""
"null","<div style=""font-size:60px;""> </div>","null","html-keyboard-response","423","447173","0.0-32.0-4.43","","","fixation_3","","","","","",""
"null","<img src=""CC1.png"" width=200 height=200/>","null","html-keyboard-response","424","448177","0.0-32.0-5.43","","","test","downarrow","1","1","TRUE","FALSE",""
"null","<div style=""font-size:60px;""> </div>","null","html-keyboard-response","425","448481","0.0-32.0-6.43","","","fixation_4","","","","","",""
"297.20000000298023","arrows.png","40","image-keyboard-response","426","448779","0.0-32.0-7.43","","","test","downarrow","1","1","TRUE","FALSE","true"
"null","<p style=""color: green; font-size:300%;"">correct: $7.50</p>","null","html-keyboard-response","427","450034","0.0-32.0-8.43","","","","","","","","",""
"null","<div style=""font-size:60px;""> </div>","null","html-keyboard-response","428","450841","0.0-32.0-0.44","","","fixation_1","","","","","",""
"null","","null","image-keyboard-response","429","450846","0.0-32.0-1.44","","","test","leftarrow","1","1","FALSE","FALSE",""
"null","<div style=""font-size:60px;""> </div>","null","html-keyboard-response","430","451149","0.0-32.0-2.44","","","fixation_2","","","","","",""
"null","img_3.bmp","null","image-keyboard-response","431","452153","0.0-32.0-3.44","","","img_on","","","","","",""
"null","<div style=""font-size:60px;""> </div>","null","html-keyboard-response","432","452458","0.0-32.0-4.44","","","fixation_3","","","","","",""
"null","","null","html-keyboard-response","433","452464","0.0-32.0-5.44","","","test","leftarrow","1","1","FALSE","FALSE",""
"null","<div style=""font-size:60px;""> </div>","null","html-keyboard-response","434","452769","0.0-32.0-6.44","","","fixation_4","","","","","",""
"1232.8999999985099","arrows.png","37","image-keyboard-response","435","454003","0.0-32.0-7.44","","","test","leftarrow","1","1","FALSE","FALSE","true"
"null","<p style=""color: green; font-size:300%;"">correct: $7.50</p>","null","html-keyboard-response","436","455262","0.0-32.0-8.44","","","","","","","","",""
"null","<div style=""font-size:60px;""> </div>","null","html-keyboard-response","437","456570","0.0-32.0-0.45","","","fixation_1","","","","","",""
"null","","null","image-keyboard-response","438","456576","0.0-32.0-1.45","","","test","uparrow","0","1","FALSE","FALSE",""
"null","<div style=""font-size:60px;""> </div>","null","html-keyboard-response","439","456881","0.0-32.0-2.45","","","fixation_2","","","","","",""
"null","img_4.bmp","null","image-keyboard-response","440","457886","0.0-32.0-3.45","","","img_on","","","","","",""
"null","<div style=""font-size:60px;""> </div>","null","html-keyboard-response","441","458190","0.0-32.0-4.45","","","fixation_3","","","","","",""
"null","","null","html-keyboard-response","442","458196","0.0-32.0-5.45","","","test","uparrow","0","1","FALSE","FALSE",""
"null","<div style=""font-size:60px;""> </div>","null","html-keyboard-response","443","458497","0.0-32.0-6.45","","","fixation_4","","","","","",""
"1368.3999999985099","arrows.png","38","image-keyboard-response","444","459867","0.0-32.0-7.45","","","test","uparrow","0","1","FALSE","FALSE","true"
"null","<p style=""color: green; font-size:300%;"">correct: $2.50</p>","null","html-keyboard-response","445","461122","0.0-32.0-8.45","","","","","","","","",""
"null","<div style=""font-size:60px;""> </div>","null","html-keyboard-response","446","462429","0.0-32.0-0.46","","","fixation_1","","","","","",""
"null","","null","image-keyboard-response","447","462435","0.0-32.0-1.46","","","test","rightarrow","0","1","FALSE","FALSE",""
"null","<div style=""font-size:60px;""> </div>","null","html-keyboard-response","448","462737","0.0-32.0-2.46","","","fixation_2","","","","","",""
"null","img_1.bmp","null","image-keyboard-response","449","463741","0.0-32.0-3.46","","","img_on","","","","","",""
"null","<div style=""font-size:60px;""> </div>","null","html-keyboard-response","450","464046","0.0-32.0-4.46","","","fixation_3","","","","","",""
"null","","null","html-keyboard-response","451","464052","0.0-32.0-5.46","","","test","rightarrow","0","1","FALSE","FALSE",""
"null","<div style=""font-size:60px;""> </div>","null","html-keyboard-response","452","464355","0.0-32.0-6.46","","","fixation_4","","","","","",""
"1438.3999999985099","arrows.png","39","image-keyboard-response","453","465795","0.0-32.0-7.46","","","test","rightarrow","0","1","FALSE","FALSE","true"
"null","<p style=""color: green; font-size:300%;"">correct: $2.50</p>","null","html-keyboard-response","454","467055","0.0-32.0-8.46","","","","","","","","",""
"null","<div style=""font-size:60px;""> </div>","null","html-keyboard-response","455","468362","0.0-32.0-0.47","","","fixation_1","","","","","",""
"null","","null","image-keyboard-response","456","468368","0.0-32.0-1.47","","","test","downarrow","1","1","FALSE","FALSE",""
"null","<div style=""font-size:60px;""> </div>","null","html-keyboard-response","457","468670","0.0-32.0-2.47","","","fixation_2","","","","","",""
"null","img_2.bmp","null","image-keyboard-response","458","469674","0.0-32.0-3.47","","","img_on","","","","","",""
"null","<div style=""font-size:60px;""> </div>","null","html-keyboard-response","459","469976","0.0-32.0-4.47","","","fixation_3","","","","","",""
"null","","null","html-keyboard-response","460","469982","0.0-32.0-5.47","","","test","downarrow","1","1","FALSE","FALSE",""
"null","<div style=""font-size:60px;""> </div>","null","html-keyboard-response","461","470286","0.0-32.0-6.47","","","fixation_4","","","","","",""
"316.8999999985099","arrows.png","40","image-keyboard-response","462","470604","0.0-32.0-7.47","","","test","downarrow","1","1","FALSE","FALSE","true"
"null","<p style=""color: green; font-size:300%;"">correct: $7.50</p>","null","html-keyboard-response","463","471861","0.0-32.0-8.47","","","","","","","","",""
"null","<div style=""font-size:60px;""> </div>","null","html-keyboard-response","464","473168","0.0-32.0-0.48","","","fixation_1","","","","","",""
"null","switch_cue.png","null","image-keyboard-response","465","474174","0.0-32.0-1.48","","","test","downarrow","1","1","TRUE","TRUE",""
"null","<div style=""font-size:60px;""> </div>","null","html-keyboard-response","466","474480","0.0-32.0-2.48","","","fixation_2","","","","","",""
"null","img_2.bmp","null","image-keyboard-response","467","475484","0.0-32.0-3.48","","","img_on","","","","","",""
"null","<div style=""font-size:60px;""> </div>","null","html-keyboard-response","468","475786","0.0-32.0-4.48","","","fixation_3","","","","","",""
"null","<img src=""CC1.png"" width=200 height=200/>","null","html-keyboard-response","469","476790","0.0-32.0-5.48","","","test","downarrow","1","1","TRUE","TRUE",""
"null","<div style=""font-size:60px;""> </div>","null","html-keyboard-response","470","477094","0.0-32.0-6.48","","","fixation_4","","","","","",""
"300.3999999985099","arrows.png","40","image-keyboard-response","471","477396","0.0-32.0-7.48","","","test","downarrow","1","1","TRUE","TRUE","true"
"null","<p style=""color: green; font-size:300%;"">correct: $7.50</p>","null","html-keyboard-response","472","478654","0.0-32.0-8.48","","","","","","","","",""
"null","<div style=""font-size:60px;""> </div>","null","html-keyboard-response","473","480210","0.0-32.0-0.49","","","fixation_1","","","","","",""
"null","switch_cue.png","null","image-keyboard-response","474","481214","0.0-32.0-1.49","","","test","leftarrow","1","1","TRUE","TRUE",""
"null","<div style=""font-size:60px;""> </div>","null","html-keyboard-response","475","481516","0.0-32.0-2.49","","","fixation_2","","","","","",""
"null","img_3.bmp","null","image-keyboard-response","476","482522","0.0-32.0-3.49","","","img_on","","","","","",""
"null","<div style=""font-size:60px;""> </div>","null","html-keyboard-response","477","482828","0.0-32.0-4.49","","","fixation_3","","","","","",""
"null","<img src=""CC1.png"" width=200 height=200/>","null","html-keyboard-response","478","483832","0.0-32.0-5.49","","","test","leftarrow","1","1","TRUE","TRUE",""
"null","<div style=""font-size:60px;""> </div>","null","html-keyboard-response","479","484134","0.0-32.0-6.49","","","fixation_4","","","","","",""
"261.20000000298023","arrows.png","37","image-keyboard-response","480","484396","0.0-32.0-7.49","","","test","leftarrow","1","1","TRUE","TRUE","true"
"null","<p style=""color: green; font-size:300%;"">correct: $7.50</p>","null","html-keyboard-response","481","485654","0.0-32.0-8.49","","","","","","","","",""
"null","<div style=""font-size:60px;""> </div>","null","html-keyboard-response","482","486714","0.0-32.0-0.50","","","fixation_1","","","","","",""
"null","switch_cue.png","null","image-keyboard-response","483","487718","0.0-32.0-1.50","","","test","uparrow","0","1","TRUE","TRUE",""
"null","<div style=""font-size:60px;""> </div>","null","html-keyboard-response","484","488023","0.0-32.0-2.50","","","fixation_2","","","","","",""
"null","img_4.bmp","null","image-keyboard-response","485","489027","0.0-32.0-3.50","","","img_on","","","","","",""
"null","<div style=""font-size:60px;""> </div>","null","html-keyboard-response","486","489329","0.0-32.0-4.50","","","fixation_3","","","","","",""
"null","<img src=""CC1.png"" width=200 height=200/>","null","html-keyboard-response","487","490333","0.0-32.0-5.50","","","test","uparrow","0","1","TRUE","TRUE",""
"null","<div style=""font-size:60px;""> </div>","null","html-keyboard-response","488","490637","0.0-32.0-6.50","","","fixation_4","","","","","",""
"29.299999997019768","arrows.png","38","image-keyboard-response","489","490668","0.0-32.0-7.50","","","test","uparrow","0","1","TRUE","TRUE","true"
"null","<p style=""color: green; font-size:300%;"">correct: $2.50</p>","null","html-keyboard-response","490","491927","0.0-32.0-8.50","","","","","","","","",""
"null","<div style=""font-size:60px;""> </div>","null","html-keyboard-response","491","492982","0.0-32.0-0.51","","","fixation_1","","","","","",""
"null","switch_cue.png","null","image-keyboard-response","492","493987","0.0-32.0-1.51","","","test","rightarrow","0","1","TRUE","TRUE",""
"null","<div style=""font-size:60px;""> </div>","null","html-keyboard-response","493","494291","0.0-32.0-2.51","","","fixation_2","","","","","",""
"null","img_1.bmp","null","image-keyboard-response","494","495295","0.0-32.0-3.51","","","img_on","","","","","",""
"null","<div style=""font-size:60px;""> </div>","null","html-keyboard-response","495","495599","0.0-32.0-4.51","","","fixation_3","","","","","",""
"null","<img src=""CC1.png"" width=200 height=200/>","null","html-keyboard-response","496","496603","0.0-32.0-5.51","","","test","rightarrow","0","1","TRUE","TRUE",""
"null","<div style=""font-size:60px;""> </div>","null","html-keyboard-response","497","496905","0.0-32.0-6.51","","","fixation_4","","","","","",""
"314.19999999552965","arrows.png","39","image-keyboard-response","498","497220","0.0-32.0-7.51","","","test","rightarrow","0","1","TRUE","TRUE","true"
"null","<p style=""color: green; font-size:300%;"">correct: $2.50</p>","null","html-keyboard-response","499","498478","0.0-32.0-8.51","","","","","","","","",""
"null","<div style=""font-size:60px;""> </div>","null","html-keyboard-response","500","499534","0.0-32.0-0.52","","","fixation_1","","","","","",""
"null","switch_cue.png","null","image-keyboard-response","501","500539","0.0-32.0-1.52","","","test","uparrow","1","2","TRUE","TRUE",""
"null","<div style=""font-size:60px;""> </div>","null","html-keyboard-response","502","500843","0.0-32.0-2.52","","","fixation_2","","","","","",""
"null","img_1.bmp","null","image-keyboard-response","503","501846","0.0-32.0-3.52","","","img_on","","","","","",""
"null","<div style=""font-size:60px;""> </div>","null","html-keyboard-response","504","502151","0.0-32.0-4.52","","","fixation_3","","","","","",""
"null","<img src=""CC2.png"" width=200 height=200/>","null","html-keyboard-response","505","503155","0.0-32.0-5.52","","","test","uparrow","1","2","TRUE","TRUE",""
"null","<div style=""font-size:60px;""> </div>","null","html-keyboard-response","506","503459","0.0-32.0-6.52","","","fixation_4","","","","","",""
"552.7999999970198","arrows.png","40","image-keyboard-response","507","504013","0.0-32.0-7.52","","","test","uparrow","1","2","TRUE","TRUE","false"
"null","<p style=""color: red; font-size:300%;"">incorrect: $0</p>","null","html-keyboard-response","508","505270","0.0-32.0-8.52","","","","","","","","",""
"null","<div style=""font-size:60px;""> </div>","null","html-keyboard-response","509","506079","0.0-32.0-0.53","","","fixation_1","","","","","",""
"null","","null","image-keyboard-response","510","506085","0.0-32.0-1.53","","","test","leftarrow","0","2","TRUE","FALSE",""
"null","<div style=""font-size:60px;""> </div>","null","html-keyboard-response","511","506391","0.0-32.0-2.53","","","fixation_2","","","","","",""
"null","img_4.bmp","null","image-keyboard-response","512","507395","0.0-32.0-3.53","","","img_on","","","","","",""
"null","<div style=""font-size:60px;""> </div>","null","html-keyboard-response","513","507698","0.0-32.0-4.53","","","fixation_3","","","","","",""
"null","<img src=""CC2.png"" width=200 height=200/>","null","html-keyboard-response","514","508703","0.0-32.0-5.53","","","test","leftarrow","0","2","TRUE","FALSE",""
"null","<div style=""font-size:60px;""> </div>","null","html-keyboard-response","515","509009","0.0-32.0-6.53","","","fixation_4","","","","","",""
"651.5","arrows.png","39","image-keyboard-response","516","509662","0.0-32.0-7.53","","","test","leftarrow","0","2","TRUE","FALSE","false"
"null","<p style=""color: red; font-size:300%;"">incorrect: $0</p>","null","html-keyboard-response","517","510919","0.0-32.0-8.53","","","","","","","","",""
"null","<div style=""font-size:60px;""> </div>","null","html-keyboard-response","518","511726","0.0-32.0-0.54","","","fixation_1","","","","","",""
"null","","null","image-keyboard-response","519","511731","0.0-32.0-1.54","","","test","rightarrow","1","2","TRUE","FALSE",""
"null","<div style=""font-size:60px;""> </div>","null","html-keyboard-response","520","512033","0.0-32.0-2.54","","","fixation_2","","","","","",""
"null","img_2.bmp","null","image-keyboard-response","521","513039","0.0-32.0-3.54","","","img_on","","","","","",""
"null","<div style=""font-size:60px;""> </div>","null","html-keyboard-response","522","513343","0.0-32.0-4.54","","","fixation_3","","","","","",""
"null","<img src=""CC2.png"" width=200 height=200/>","null","html-keyboard-response","523","514350","0.0-32.0-5.54","","","test","rightarrow","1","2","TRUE","FALSE",""
"null","<div style=""font-size:60px;""> </div>","null","html-keyboard-response","524","514651","0.0-32.0-6.54","","","fixation_4","","","","","",""
"296.5","arrows.png","40","image-keyboard-response","525","514949","0.0-32.0-7.54","","","test","rightarrow","1","2","TRUE","FALSE","false"
"null","<p style=""color: red; font-size:300%;"">incorrect: $0</p>","null","html-keyboard-response","526","516207","0.0-32.0-8.54","","","","","","","","",""
"null","<div style=""font-size:60px;""> </div>","null","html-keyboard-response","527","517763","0.0-32.0-0.55","","","fixation_1","","","","","",""
"null","","null","image-keyboard-response","528","517769","0.0-32.0-1.55","","","test","downarrow","0","2","TRUE","FALSE",""
"null","<div style=""font-size:60px;""> </div>","null","html-keyboard-response","529","518071","0.0-32.0-2.55","","","fixation_2","","","","","",""
"null","img_3.bmp","null","image-keyboard-response","530","519075","0.0-32.0-3.55","","","img_on","","","","","",""
"null","<div style=""font-size:60px;""> </div>","null","html-keyboard-response","531","519377","0.0-32.0-4.55","","","fixation_3","","","","","",""
"null","<img src=""CC2.png"" width=200 height=200/>","null","html-keyboard-response","532","520381","0.0-32.0-5.55","","","test","downarrow","0","2","TRUE","FALSE",""
"null","<div style=""font-size:60px;""> </div>","null","html-keyboard-response","533","520683","0.0-32.0-6.55","","","fixation_4","","","","","",""
"198.90000000596046","arrows.png","40","image-keyboard-response","534","520885","0.0-32.0-7.55","","","test","downarrow","0","2","TRUE","FALSE","true"
"null","<p style=""color: green; font-size:300%;"">correct: $2.50</p>","null","html-keyboard-response","535","522141","0.0-32.0-8.55","","","","","","","","",""
"null","<div style=""font-size:60px;""> </div>","null","html-keyboard-response","536","523447","0.0-32.0-0.56","","","fixation_1","","","","","",""
"null","","null","image-keyboard-response","537","523453","0.0-32.0-1.56","","","test","downarrow","0","2","FALSE","FALSE",""
"null","<div style=""font-size:60px;""> </div>","null","html-keyboard-response","538","523756","0.0-32.0-2.56","","","fixation_2","","","","","",""
"null","img_3.bmp","null","image-keyboard-response","539","524760","0.0-32.0-3.56","","","img_on","","","","","",""
"null","<div style=""font-size:60px;""> </div>","null","html-keyboard-response","540","525062","0.0-32.0-4.56","","","fixation_3","","","","","",""
"null","","null","html-keyboard-response","541","525068","0.0-32.0-5.56","","","test","downarrow","0","2","FALSE","FALSE",""
"null","<div style=""font-size:60px;""> </div>","null","html-keyboard-response","542","525370","0.0-32.0-6.56","","","fixation_4","","","","","",""
"338.20000000298023","arrows.png","40","image-keyboard-response","543","525709","0.0-32.0-7.56","","","test","downarrow","0","2","FALSE","FALSE","true"
"null","<p style=""color: green; font-size:300%;"">correct: $2.50</p>","null","html-keyboard-response","544","526964","0.0-32.0-8.56","","","","","","","","",""
"null","<div style=""font-size:60px;""> </div>","null","html-keyboard-response","545","528271","0.0-32.0-0.57","","","fixation_1","","","","","",""
"null","","null","image-keyboard-response","546","528277","0.0-32.0-1.57","","","test","uparrow","1","2","FALSE","FALSE",""
"null","<div style=""font-size:60px;""> </div>","null","html-keyboard-response","547","528580","0.0-32.0-2.57","","","fixation_2","","","","","",""
"null","img_1.bmp","null","image-keyboard-response","548","529584","0.0-32.0-3.57","","","img_on","","","","","",""
"null","<div style=""font-size:60px;""> </div>","null","html-keyboard-response","549","529888","0.0-32.0-4.57","","","fixation_3","","","","","",""
"null","","null","html-keyboard-response","550","529893","0.0-32.0-5.57","","","test","uparrow","1","2","FALSE","FALSE",""
"null","<div style=""font-size:60px;""> </div>","null","html-keyboard-response","551","530198","0.0-32.0-6.57","","","fixation_4","","","","","",""
"429.5","arrows.png","37","image-keyboard-response","552","530629","0.0-32.0-7.57","","","test","uparrow","1","2","FALSE","FALSE","false"
"null","<p style=""color: red; font-size:300%;"">incorrect: $0</p>","null","html-keyboard-response","553","531887","0.0-32.0-8.57","","","","","","","","",""
"null","<div style=""font-size:60px;""> </div>","null","html-keyboard-response","554","532944","0.0-32.0-0.58","","","fixation_1","","","","","",""
"null","","null","image-keyboard-response","555","532949","0.0-32.0-1.58","","","test","leftarrow","0","2","FALSE","FALSE",""
"null","<div style=""font-size:60px;""> </div>","null","html-keyboard-response","556","533251","0.0-32.0-2.58","","","fixation_2","","","","","",""
"null","img_4.bmp","null","image-keyboard-response","557","534255","0.0-32.0-3.58","","","img_on","","","","","",""
"null","<div style=""font-size:60px;""> </div>","null","html-keyboard-response","558","534557","0.0-32.0-4.58","","","fixation_3","","","","","",""
"null","","null","html-keyboard-response","559","534562","0.0-32.0-5.58","","","test","leftarrow","0","2","FALSE","FALSE",""
"null","<div style=""font-size:60px;""> </div>","null","html-keyboard-response","560","534864","0.0-32.0-6.58","","","fixation_4","","","","","",""
"1467.8999999985099","arrows.png","38","image-keyboard-response","561","536334","0.0-32.0-7.58","","","test","leftarrow","0","2","FALSE","FALSE","false"
"null","<p style=""color: red; font-size:300%;"">incorrect: $0</p>","null","html-keyboard-response","562","537593","0.0-32.0-8.58","","","","","","","","",""
"null","<div style=""font-size:60px;""> </div>","null","html-keyboard-response","563","538151","0.0-32.0-0.59","","","fixation_1","","","","","",""
"null","","null","image-keyboard-response","564","538157","0.0-32.0-1.59","","","test","rightarrow","1","2","FALSE","FALSE",""
"null","<div style=""font-size:60px;""> </div>","null","html-keyboard-response","565","538462","0.0-32.0-2.59","","","fixation_2","","","","","",""
"null","img_2.bmp","null","image-keyboard-response","566","539464","0.0-32.0-3.59","","","img_on","","","","","",""
"null","<div style=""font-size:60px;""> </div>","null","html-keyboard-response","567","539768","0.0-32.0-4.59","","","fixation_3","","","","","",""
"null","","null","html-keyboard-response","568","539774","0.0-32.0-5.59","","","test","rightarrow","1","2","FALSE","FALSE",""
"null","<div style=""font-size:60px;""> </div>","null","html-keyboard-response","569","540078","0.0-32.0-6.59","","","fixation_4","","","","","",""
"1541.7999999970198","arrows.png","37","image-keyboard-response","570","541622","0.0-32.0-7.59","","","test","rightarrow","1","2","FALSE","FALSE","false"
"null","<p style=""color: red; font-size:300%;"">incorrect: $0</p>","null","html-keyboard-response","571","542876","0.0-32.0-8.59","","","","","","","","",""
"null","<div style=""font-size:60px;""> </div>","null","html-keyboard-response","572","543436","0.0-32.0-0.60","","","fixation_1","","","","","",""
"null","","null","image-keyboard-response","573","543443","0.0-32.0-1.60","","","test","uparrow","1","2","FALSE","FALSE",""
"null","<div style=""font-size:60px;""> </div>","null","html-keyboard-response","574","543748","0.0-32.0-2.60","","","fixation_2","","","","","",""
"null","img_1.bmp","null","image-keyboard-response","575","544752","0.0-32.0-3.60","","","img_on","","","","","",""
"null","<div style=""font-size:60px;""> </div>","null","html-keyboard-response","576","545056","0.0-32.0-4.60","","","fixation_3","","","","","",""
"null","","null","html-keyboard-response","577","545062","0.0-32.0-5.60","","","test","uparrow","1","2","FALSE","FALSE",""
"null","<div style=""font-size:60px;""> </div>","null","html-keyboard-response","578","545367","0.0-32.0-6.60","","","fixation_4","","","","","",""
"293.8999999985099","arrows.png","37","image-keyboard-response","579","545662","0.0-32.0-7.60","","","test","uparrow","1","2","FALSE","FALSE","false"
"null","<p style=""color: red; font-size:300%;"">incorrect: $0</p>","null","html-keyboard-response","580","546918","0.0-32.0-8.60","","","","","","","","",""
"null","<div style=""font-size:60px;""> </div>","null","html-keyboard-response","581","548224","0.0-32.0-0.61","","","fixation_1","","","","","",""
"null","","null","image-keyboard-response","582","548230","0.0-32.0-1.61","","","test","rightarrow","1","2","FALSE","FALSE",""
"null","<div style=""font-size:60px;""> </div>","null","html-keyboard-response","583","548536","0.0-32.0-2.61","","","fixation_2","","","","","",""
"null","img_2.bmp","null","image-keyboard-response","584","549540","0.0-32.0-3.61","","","img_on","","","","","",""
"null","<div style=""font-size:60px;""> </div>","null","html-keyboard-response","585","549844","0.0-32.0-4.61","","","fixation_3","","","","","",""
"null","","null","html-keyboard-response","586","549850","0.0-32.0-5.61","","","test","rightarrow","1","2","FALSE","FALSE",""
"null","<div style=""font-size:60px;""> </div>","null","html-keyboard-response","587","550152","0.0-32.0-6.61","","","fixation_4","","","","","",""
"780.5","arrows.png","38","image-keyboard-response","588","550934","0.0-32.0-7.61","","","test","rightarrow","1","2","FALSE","FALSE","false"
"null","<p style=""color: red; font-size:300%;"">incorrect: $0</p>","null","html-keyboard-response","589","552193","0.0-32.0-8.61","","","","","","","","",""
"null","<div style=""font-size:60px;""> </div>","null","html-keyboard-response","590","553500","0.0-32.0-0.62","","","fixation_1","","","","","",""
"null","","null","image-keyboard-response","591","553506","0.0-32.0-1.62","","","test","downarrow","0","2","FALSE","FALSE",""
"null","<div style=""font-size:60px;""> </div>","null","html-keyboard-response","592","553807","0.0-32.0-2.62","","","fixation_2","","","","","",""
"null","img_3.bmp","null","image-keyboard-response","593","554812","0.0-32.0-3.62","","","img_on","","","","","",""
"null","<div style=""font-size:60px;""> </div>","null","html-keyboard-response","594","555116","0.0-32.0-4.62","","","fixation_3","","","","","",""
"null","","null","html-keyboard-response","595","555121","0.0-32.0-5.62","","","test","downarrow","0","2","FALSE","FALSE",""
"null","<div style=""font-size:60px;""> </div>","null","html-keyboard-response","596","555427","0.0-32.0-6.62","","","fixation_4","","","","","",""
"329.80000000447035","arrows.png","40","image-keyboard-response","597","555758","0.0-32.0-7.62","","","test","downarrow","0","2","FALSE","FALSE","true"
"null","<p style=""color: green; font-size:300%;"">correct: $2.50</p>","null","html-keyboard-response","598","557018","0.0-32.0-8.62","","","","","","","","",""
"null","<div style=""font-size:60px;""> </div>","null","html-keyboard-response","599","558325","0.0-32.0-0.63","","","fixation_1","","","","","",""
"null","","null","image-keyboard-response","600","558331","0.0-32.0-1.63","","","test","leftarrow","0","2","FALSE","FALSE",""
"null","<div style=""font-size:60px;""> </div>","null","html-keyboard-response","601","558632","0.0-32.0-2.63","","","fixation_2","","","","","",""
"null","img_4.bmp","null","image-keyboard-response","602","559636","0.0-32.0-3.63","","","img_on","","","","","",""
"null","<div style=""font-size:60px;""> </div>","null","html-keyboard-response","603","559940","0.0-32.0-4.63","","","fixation_3","","","","","",""
"null","","null","html-keyboard-response","604","559946","0.0-32.0-5.63","","","test","leftarrow","0","2","FALSE","FALSE",""
"null","<div style=""font-size:60px;""> </div>","null","html-keyboard-response","605","560251","0.0-32.0-6.63","","","fixation_4","","","","","",""
"345.6000000014901","arrows.png","39","image-keyboard-response","606","560599","0.0-32.0-7.63","","","test","leftarrow","0","2","FALSE","FALSE","false"
"null","<p style=""color: red; font-size:300%;"">incorrect: $0</p>","null","html-keyboard-response","607","561855","0.0-32.0-8.63","","","","","","","","",""
"null","<div style=""font-size:60px;""> </div>","null","html-keyboard-response","608","562411","0.0-32.0-0.64","","","fixation_1","","","","","",""
"null","switch_cue.png","null","image-keyboard-response","609","563416","0.0-32.0-1.64","","","test","leftarrow","1","3","TRUE","TRUE",""
"null","<div style=""font-size:60px;""> </div>","null","html-keyboard-response","610","563719","0.0-32.0-2.64","","","fixation_2","","","","","",""
"null","img_3.bmp","null","image-keyboard-response","611","564724","0.0-32.0-3.64","","","img_on","","","","","",""
"null","<div style=""font-size:60px;""> </div>","null","html-keyboard-response","612","565028","0.0-32.0-4.64","","","fixation_3","","","","","",""
"null","<img src=""CC3.png"" width=200 height=200/>","null","html-keyboard-response","613","566033","0.0-32.0-5.64","","","test","leftarrow","1","3","TRUE","TRUE",""
"null","<div style=""font-size:60px;""> </div>","null","html-keyboard-response","614","566336","0.0-32.0-6.64","","","fixation_4","","","","","",""
"629.7000000029802","arrows.png","37","image-keyboard-response","615","566967","0.0-32.0-7.64","","","test","leftarrow","1","3","TRUE","TRUE","true"
"null","<p style=""color: green; font-size:300%;"">correct: $7.50</p>","null","html-keyboard-response","616","568225","0.0-32.0-8.64","","","","","","","","",""
"null","<div style=""font-size:60px;""> </div>","null","html-keyboard-response","617","568781","0.0-32.0-0.65","","","fixation_1","","","","","",""
"null","","null","image-keyboard-response","618","568787","0.0-32.0-1.65","","","test","downarrow","1","3","TRUE","FALSE",""
"null","<div style=""font-size:60px;""> </div>","null","html-keyboard-response","619","569092","0.0-32.0-2.65","","","fixation_2","","","","","",""
"null","img_2.bmp","null","image-keyboard-response","620","570097","0.0-32.0-3.65","","","img_on","","","","","",""
"null","<div style=""font-size:60px;""> </div>","null","html-keyboard-response","621","570401","0.0-32.0-4.65","","","fixation_3","","","","","",""
"null","<img src=""CC3.png"" width=200 height=200/>","null","html-keyboard-response","622","571405","0.0-32.0-5.65","","","test","downarrow","1","3","TRUE","FALSE",""
"null","<div style=""font-size:60px;""> </div>","null","html-keyboard-response","623","571710","0.0-32.0-6.65","","","fixation_4","","","","","",""
"343.1000000014901","arrows.png","38","image-keyboard-response","624","572055","0.0-32.0-7.65","","","test","downarrow","1","3","TRUE","FALSE","false"
"null","<p style=""color: red; font-size:300%;"">incorrect: $0</p>","null","html-keyboard-response","625","573313","0.0-32.0-8.65","","","","","","","","",""
"null","<div style=""font-size:60px;""> </div>","null","html-keyboard-response","626","574621","0.0-32.0-0.66","","","fixation_1","","","","","",""
"null","","null","image-keyboard-response","627","574626","0.0-32.0-1.66","","","test","rightarrow","0","3","TRUE","FALSE",""
"null","<div style=""font-size:60px;""> </div>","null","html-keyboard-response","628","574928","0.0-32.0-2.66","","","fixation_2","","","","","",""
"null","img_1.bmp","null","image-keyboard-response","629","575931","0.0-32.0-3.66","","","img_on","","","","","",""
"null","<div style=""font-size:60px;""> </div>","null","html-keyboard-response","630","576232","0.0-32.0-4.66","","","fixation_3","","","","","",""
"null","<img src=""CC3.png"" width=200 height=200/>","null","html-keyboard-response","631","577237","0.0-32.0-5.66","","","test","rightarrow","0","3","TRUE","FALSE",""
"null","<div style=""font-size:60px;""> </div>","null","html-keyboard-response","632","577541","0.0-32.0-6.66","","","fixation_4","","","","","",""
"344.5","arrows.png","39","image-keyboard-response","633","577887","0.0-32.0-7.66","","","test","rightarrow","0","3","TRUE","FALSE","true"
"null","<p style=""color: green; font-size:300%;"">correct: $2.50</p>","null","html-keyboard-response","634","579147","0.0-32.0-8.66","","","","","","","","",""
"null","<div style=""font-size:60px;""> </div>","null","html-keyboard-response","635","580453","0.0-32.0-0.67","","","fixation_1","","","","","",""
"null","switch_cue.png","null","image-keyboard-response","636","581457","0.0-32.0-1.67","","","test","downarrow","1","3","TRUE","TRUE",""
"null","<div style=""font-size:60px;""> </div>","null","html-keyboard-response","637","581759","0.0-32.0-2.67","","","fixation_2","","","","","",""
"null","img_2.bmp","null","image-keyboard-response","638","582765","0.0-32.0-3.67","","","img_on","","","","","",""
"null","<div style=""font-size:60px;""> </div>","null","html-keyboard-response","639","583066","0.0-32.0-4.67","","","fixation_3","","","","","",""
"null","<img src=""CC3.png"" width=200 height=200/>","null","html-keyboard-response","640","584070","0.0-32.0-5.67","","","test","downarrow","1","3","TRUE","TRUE",""
"null","<div style=""font-size:60px;""> </div>","null","html-keyboard-response","641","584373","0.0-32.0-6.67","","","fixation_4","","","","","",""
"264.8999999985099","arrows.png","40","image-keyboard-response","642","584639","0.0-32.0-7.67","","","test","downarrow","1","3","TRUE","TRUE","true"
"null","<p style=""color: green; font-size:300%;"">correct: $7.50</p>","null","html-keyboard-response","643","585898","0.0-32.0-8.67","","","","","","","","",""
"null","<div style=""font-size:60px;""> </div>","null","html-keyboard-response","644","586957","0.0-32.0-0.68","","","fixation_1","","","","","",""
"null","switch_cue.png","null","image-keyboard-response","645","587959","0.0-32.0-1.68","","","test","rightarrow","0","3","TRUE","TRUE",""
"null","<div style=""font-size:60px;""> </div>","null","html-keyboard-response","646","588261","0.0-32.0-2.68","","","fixation_2","","","","","",""
"null","img_1.bmp","null","image-keyboard-response","647","589265","0.0-32.0-3.68","","","img_on","","","","","",""
"null","<div style=""font-size:60px;""> </div>","null","html-keyboard-response","648","589567","0.0-32.0-4.68","","","fixation_3","","","","","",""
"null","<img src=""CC3.png"" width=200 height=200/>","null","html-keyboard-response","649","590574","0.0-32.0-5.68","","","test","rightarrow","0","3","TRUE","TRUE",""
"null","<div style=""font-size:60px;""> </div>","null","html-keyboard-response","650","590879","0.0-32.0-6.68","","","fixation_4","","","","","",""
"247.70000000298023","arrows.png","39","image-keyboard-response","651","591128","0.0-32.0-7.68","","","test","rightarrow","0","3","TRUE","TRUE","true"
"null","<p style=""color: green; font-size:300%;"">correct: $2.50</p>","null","html-keyboard-response","652","592386","0.0-32.0-8.68","","","","","","","","",""
"null","<div style=""font-size:60px;""> </div>","null","html-keyboard-response","653","593190","0.0-32.0-0.69","","","fixation_1","","","","","",""
"null","switch_cue.png","null","image-keyboard-response","654","594194","0.0-32.0-1.69","","","test","leftarrow","1","3","TRUE","TRUE",""
"null","<div style=""font-size:60px;""> </div>","null","html-keyboard-response","655","594498","0.0-32.0-2.69","","","fixation_2","","","","","",""
"null","img_3.bmp","null","image-keyboard-response","656","595502","0.0-32.0-3.69","","","img_on","","","","","",""
"null","<div style=""font-size:60px;""> </div>","null","html-keyboard-response","657","595808","0.0-32.0-4.69","","","fixation_3","","","","","",""
"null","<img src=""CC3.png"" width=200 height=200/>","null","html-keyboard-response","658","596814","0.0-32.0-5.69","","","test","leftarrow","1","3","TRUE","TRUE",""
"null","<div style=""font-size:60px;""> </div>","null","html-keyboard-response","659","597115","0.0-32.0-6.69","","","fixation_4","","","","","",""
"171.29999999701977","arrows.png","37","image-keyboard-response","660","597288","0.0-32.0-7.69","","","test","leftarrow","1","3","TRUE","TRUE","true"
"null","<p style=""color: green; font-size:300%;"">correct: $7.50</p>","null","html-keyboard-response","661","598544","0.0-32.0-8.69","","","","","","","","",""
"null","<div style=""font-size:60px;""> </div>","null","html-keyboard-response","662","599852","0.0-32.0-0.70","","","fixation_1","","","","","",""
"null","switch_cue.png","null","image-keyboard-response","663","600858","0.0-32.0-1.70","","","test","leftarrow","1","3","TRUE","TRUE",""
"null","<div style=""font-size:60px;""> </div>","null","html-keyboard-response","664","601160","0.0-32.0-2.70","","","fixation_2","","","","","",""
"null","img_3.bmp","null","image-keyboard-response","665","602166","0.0-32.0-3.70","","","img_on","","","","","",""
"null","<div style=""font-size:60px;""> </div>","null","html-keyboard-response","666","602470","0.0-32.0-4.70","","","fixation_3","","","","","",""
"null","<img src=""CC3.png"" width=200 height=200/>","null","html-keyboard-response","667","603476","0.0-32.0-5.70","","","test","leftarrow","1","3","TRUE","TRUE",""
"null","<div style=""font-size:60px;""> </div>","null","html-keyboard-response","668","603782","0.0-32.0-6.70","","","fixation_4","","","","","",""
"136.39999999850988","arrows.png","37","image-keyboard-response","669","603920","0.0-32.0-7.70","","","test","leftarrow","1","3","TRUE","TRUE","true"
"null","<p style=""color: green; font-size:300%;"">correct: $7.50</p>","null","html-keyboard-response","670","605177","0.0-32.0-8.70","","","","","","","","",""
"null","<div style=""font-size:60px;""> </div>","null","html-keyboard-response","671","605736","0.0-32.0-0.71","","","fixation_1","","","","","",""
"null","switch_cue.png","null","image-keyboard-response","672","606739","0.0-32.0-1.71","","","test","downarrow","1","3","TRUE","TRUE",""
"null","<div style=""font-size:60px;""> </div>","null","html-keyboard-response","673","607042","0.0-32.0-2.71","","","fixation_2","","","","","",""
"null","img_2.bmp","null","image-keyboard-response","674","608046","0.0-32.0-3.71","","","img_on","","","","","",""
"null","<div style=""font-size:60px;""> </div>","null","html-keyboard-response","675","608348","0.0-32.0-4.71","","","fixation_3","","","","","",""
"null","<img src=""CC3.png"" width=200 height=200/>","null","html-keyboard-response","676","609353","0.0-32.0-5.71","","","test","downarrow","1","3","TRUE","TRUE",""
"null","<div style=""font-size:60px;""> </div>","null","html-keyboard-response","677","609658","0.0-32.0-6.71","","","fixation_4","","","","","",""
"244.30000000447035","arrows.png","40","image-keyboard-response","678","609904","0.0-32.0-7.71","","","test","downarrow","1","3","TRUE","TRUE","true"
"null","<p style=""color: green; font-size:300%;"">correct: $7.50</p>","null","html-keyboard-response","679","611162","0.0-32.0-8.71","","","","","","","","",""
"null","<div style=""font-size:60px;""> </div>","null","html-keyboard-response","680","611722","0.0-32.0-0.72","","","fixation_1","","","","","",""
"null","switch_cue.png","null","image-keyboard-response","681","612725","0.0-32.0-1.72","","","test","rightarrow","0","3","TRUE","TRUE",""
"null","<div style=""font-size:60px;""> </div>","null","html-keyboard-response","682","613030","0.0-32.0-2.72","","","fixation_2","","","","","",""
"null","img_1.bmp","null","image-keyboard-response","683","614036","0.0-32.0-3.72","","","img_on","","","","","",""
"null","<div style=""font-size:60px;""> </div>","null","html-keyboard-response","684","614338","0.0-32.0-4.72","","","fixation_3","","","","","",""
"null","<img src=""CC3.png"" width=200 height=200/>","null","html-keyboard-response","685","615342","0.0-32.0-5.72","","","test","rightarrow","0","3","TRUE","TRUE",""
"null","<div style=""font-size:60px;""> </div>","null","html-keyboard-response","686","615645","0.0-32.0-6.72","","","fixation_4","","","","","",""
"330.19999999552965","arrows.png","39","image-keyboard-response","687","615977","0.0-32.0-7.72","","","test","rightarrow","0","3","TRUE","TRUE","true"
"null","<p style=""color: green; font-size:300%;"">correct: $2.50</p>","null","html-keyboard-response","688","617234","0.0-32.0-8.72","","","","","","","","",""
"null","<div style=""font-size:60px;""> </div>","null","html-keyboard-response","689","618294","0.0-32.0-0.73","","","fixation_1","","","","","",""
"null","switch_cue.png","null","image-keyboard-response","690","619296","0.0-32.0-1.73","","","test","downarrow","0","4","TRUE","TRUE",""
"null","<div style=""font-size:60px;""> </div>","null","html-keyboard-response","691","619599","0.0-32.0-2.73","","","fixation_2","","","","","",""
"null","img_3.bmp","null","image-keyboard-response","692","620603","0.0-32.0-3.73","","","img_on","","","","","",""
