"rt","stimulus","key_press","trial_type","trial_index","time_elapsed","internal_node_id","responses","view_history","test_part","correct_response","outcome","context","cc","sc","correct"
"6797.0999999940395","<p><b>Welcome to the Picture Learning Game!</b></p>
      <p>The game will take ~35 minutes to complete, and you can make up to $17.50.</p>
      <p>You must use a desktop or laptop computer computer (no mobile devices).</p>
      <p><em>Press any key to continue.</em></p>","72","html-keyboard-response","0","6808","0.0-0.0","","","","","","","","",""
"4259.20000000298","","","survey-text","1","11070","0.0-1.0","{""aws"":""A171S8E9IFSHH2""}","","","","","","","",""
"7358.9000000059605","","","survey-text","2","18432","0.0-2.0","{""age"":""24"",""english"":""Y"",""handedness"":""R"",""desktop"":""Y""}","","","","","","","",""
"28646.30000001192","","","instructions","3","47079","0.0-3.0","","[{""page_index"":0,""viewing_time"":823.5},{""page_index"":1,""viewing_time"":4769.9000000059605},{""page_index"":2,""viewing_time"":5120.29999999702},{""page_index"":3,""viewing_time"":15076.40000000596},{""page_index"":4,""viewing_time"":2856}]","","","","","","",""
"null","sample1.bmp","null","image-keyboard-response","4","48080","0.0-4.0","","","","","","","","",""
"1164","arrows.png","38","image-keyboard-response","5","49545","0.0-5.0","","","","","","","","",""
"136845.29999999702","","","instructions","6","186390","0.0-6.0","","[{""page_index"":0,""viewing_time"":1429.0999999940395},{""page_index"":1,""viewing_time"":132729.90000000596},{""page_index"":2,""viewing_time"":2686.0999999940395}]","","","","","","",""
"null","sample1.bmp","null","image-keyboard-response","7","187391","0.0-7.0","","","","","","","","",""
"null","<img src=""CC1.png"" width=200 height=200/>","null","html-keyboard-response","8","188695","0.0-8.0","","","","","","","","",""
"374.8999999910593","arrows.png","38","image-keyboard-response","9","189372","0.0-9.0","","","","","","","","",""
"5020","","","instructions","10","194392","0.0-10.0","","[{""page_index"":0,""viewing_time"":915.7000000029802},{""page_index"":1,""viewing_time"":4104.199999988079}]","","","","","","",""
"null","sample1.bmp","null","image-keyboard-response","11","195394","0.0-11.0","","","","","","","","",""
"null","<img src=""CC2.png"" width=200 height=200/>","null","html-keyboard-response","12","196695","0.0-12.0","","","","","","","","",""
"327.29999999701977","arrows.png","39","image-keyboard-response","13","197324","0.0-13.0","","","","","","","","",""
"40243.09999999404","","","instructions","14","237568","0.0-14.0","","[{""page_index"":0,""viewing_time"":925.7999999970198},{""page_index"":1,""viewing_time"":18338.5},{""page_index"":2,""viewing_time"":14836.39999999106},{""page_index"":3,""viewing_time"":2078.2000000029802},{""page_index"":4,""viewing_time"":4064.1000000089407}]","","","","","","",""
"null","sample1.bmp","null","image-keyboard-response","15","238569","0.0-15.0","","","","","","","","",""
"1663.7999999970198","arrows.png","39","image-keyboard-response","16","240534","0.0-16.0","","","","","","","","",""
"166438.80000001192","","","instructions","17","406973","0.0-17.0","","[{""page_index"":0,""viewing_time"":1555.800000011921},{""page_index"":1,""viewing_time"":71000.09999999404},{""page_index"":2,""viewing_time"":93882.79999999702}]","","","","","","",""
"null","sample1.bmp","null","image-keyboard-response","18","407974","0.0-18.0","","","","","","","","",""
"2112.4000000059605","arrows.png","39","image-keyboard-response","19","410388","0.0-19.0","","","","","","","","",""
"null","<p style=""color: green; font-size:300%;"">correct</p>","null","html-keyboard-response","20","411389","0.0-20.0","","","","","","","","",""
"null","switch_cue.png","null","image-keyboard-response","21","412692","0.0-21.0","","","","","","","","",""
"null","sample1.bmp","null","image-keyboard-response","22","413994","0.0-22.0","","","","","","","","",""
"null","<img src=""CC2.png"" width=200 height=200/>","null","html-keyboard-response","23","415297","0.0-23.0","","","","","","","","",""
"549.6000000089407","arrows.png","39","image-keyboard-response","24","416147","0.0-24.0","","","","","","","","",""
"null","<p style=""color: green; font-size:300%;"">correct</p>","null","html-keyboard-response","25","417149","0.0-25.0","","","","","","","","",""
"null","switch_cue.png","null","image-keyboard-response","26","418539","0.0-26.0","","","","","","","","",""
"null","sample1.bmp","null","image-keyboard-response","27","421539","0.0-27.0","","","","","","","","",""
"null","<img src=""CC1.png"" width=200 height=200/>","null","html-keyboard-response","28","424540","0.0-28.0","","","","","","","","",""
"8048.79999999702","arrows.png","38","image-keyboard-response","29","433588","0.0-29.0","","","","","","","","",""
"null","<p style=""color: green; font-size:300%;"">correct</p>","null","html-keyboard-response","30","434588","0.0-30.0","","","","","","","","",""
"949090.5","","","instructions","31","1383979","0.0-31.0","","[{""page_index"":0,""viewing_time"":7333.20000000298},{""page_index"":1,""viewing_time"":1265.6000000089407},{""page_index"":2,""viewing_time"":5342.0999999940395},{""page_index"":3,""viewing_time"":2864},{""page_index"":4,""viewing_time"":3296.2000000029802},{""page_index"":5,""viewing_time"":909220.599999994},{""page_index"":6,""viewing_time"":18662.5},{""page_index"":7,""viewing_time"":1106.1000000089407}]","","","","","","",""
"null","<div style=""font-size:60px;""> </div>","null","html-keyboard-response","32","1384281","0.0-32.0-0.0","","","fixation_1","","","","","",""
"null","","null","image-keyboard-response","33","1384284","0.0-32.0-1.0","","","test","rightarrow","0","1","TRUE","FALSE",""
"null","<div style=""font-size:60px;""> </div>","null","html-keyboard-response","34","1384585","0.0-32.0-2.0","","","fixation_2","","","","","",""
"null","img_1.bmp","null","image-keyboard-response","35","1385586","0.0-32.0-3.0","","","img_on","","","","","",""
"null","<div style=""font-size:60px;""> </div>","null","html-keyboard-response","36","1385887","0.0-32.0-4.0","","","fixation_3","","","","","",""
"null","<img src=""CC1.png"" width=200 height=200/>","null","html-keyboard-response","37","1386888","0.0-32.0-5.0","","","test","rightarrow","0","1","TRUE","FALSE",""
"null","<div style=""font-size:60px;""> </div>","null","html-keyboard-response","38","1387189","0.0-32.0-6.0","","","fixation_4","","","","","",""
"809.0999999940395","arrows.png","37","image-keyboard-response","39","1387999","0.0-32.0-7.0","","","test","rightarrow","0","1","TRUE","FALSE","false"
"null","<p style=""color: red; font-size:300%;"">incorrect: $0</p>","null","html-keyboard-response","40","1389252","0.0-32.0-8.0","","","","","","","","",""
"null","<div style=""font-size:60px;""> </div>","null","html-keyboard-response","41","1390054","0.0-32.0-0.1","","","fixation_1","","","","","",""
"null","","null","image-keyboard-response","42","1390059","0.0-32.0-1.1","","","test","uparrow","0","1","TRUE","FALSE",""
"null","<div style=""font-size:60px;""> </div>","null","html-keyboard-response","43","1390360","0.0-32.0-2.1","","","fixation_2","","","","","",""
"null","img_4.bmp","null","image-keyboard-response","44","1391361","0.0-32.0-3.1","","","img_on","","","","","",""
"null","<div style=""font-size:60px;""> </div>","null","html-keyboard-response","45","1391662","0.0-32.0-4.1","","","fixation_3","","","","","",""
"null","<img src=""CC1.png"" width=200 height=200/>","null","html-keyboard-response","46","1392663","0.0-32.0-5.1","","","test","uparrow","0","1","TRUE","FALSE",""
"null","<div style=""font-size:60px;""> </div>","null","html-keyboard-response","47","1392965","0.0-32.0-6.1","","","fixation_4","","","","","",""
"346.1000000089407","arrows.png","37","image-keyboard-response","48","1393311","0.0-32.0-7.1","","","test","uparrow","0","1","TRUE","FALSE","false"
"null","<p style=""color: red; font-size:300%;"">incorrect: $0</p>","null","html-keyboard-response","49","1394563","0.0-32.0-8.1","","","","","","","","",""
"null","<div style=""font-size:60px;""> </div>","null","html-keyboard-response","50","1395865","0.0-32.0-0.2","","","fixation_1","","","","","",""
"null","","null","image-keyboard-response","51","1395871","0.0-32.0-1.2","","","test","downarrow","1","1","TRUE","FALSE",""
"null","<div style=""font-size:60px;""> </div>","null","html-keyboard-response","52","1396172","0.0-32.0-2.2","","","fixation_2","","","","","",""
"null","img_2.bmp","null","image-keyboard-response","53","1397173","0.0-32.0-3.2","","","img_on","","","","","",""
"null","<div style=""font-size:60px;""> </div>","null","html-keyboard-response","54","1397474","0.0-32.0-4.2","","","fixation_3","","","","","",""
"null","<img src=""CC1.png"" width=200 height=200/>","null","html-keyboard-response","55","1398476","0.0-32.0-5.2","","","test","downarrow","1","1","TRUE","FALSE",""
"null","<div style=""font-size:60px;""> </div>","null","html-keyboard-response","56","1398777","0.0-32.0-6.2","","","fixation_4","","","","","",""
"478.59999999403954","arrows.png","38","image-keyboard-response","57","1399256","0.0-32.0-7.2","","","test","downarrow","1","1","TRUE","FALSE","false"
"null","<p style=""color: red; font-size:300%;"">incorrect: $0</p>","null","html-keyboard-response","58","1400538","0.0-32.0-8.2","","","","","","","","",""
"null","<div style=""font-size:60px;""> </div>","null","html-keyboard-response","59","1403539","0.0-32.0-0.3","","","fixation_1","","","","","",""
"null","","null","image-keyboard-response","60","1404538","0.0-32.0-1.3","","","test","leftarrow","1","1","TRUE","FALSE",""
"null","<div style=""font-size:60px;""> </div>","null","html-keyboard-response","61","1405538","0.0-32.0-2.3","","","fixation_2","","","","","",""
"null","img_3.bmp","null","image-keyboard-response","62","1407539","0.0-32.0-3.3","","","img_on","","","","","",""
"null","<div style=""font-size:60px;""> </div>","null","html-keyboard-response","63","1407840","0.0-32.0-4.3","","","fixation_3","","","","","",""
"null","<img src=""CC1.png"" width=200 height=200/>","null","html-keyboard-response","64","1408841","0.0-32.0-5.3","","","test","leftarrow","1","1","TRUE","FALSE",""
"null","<div style=""font-size:60px;""> </div>","null","html-keyboard-response","65","1409156","0.0-32.0-6.3","","","fixation_4","","","","","",""
"323.1000000089407","arrows.png","38","image-keyboard-response","66","1409480","0.0-32.0-7.3","","","test","leftarrow","1","1","TRUE","FALSE","false"
"null","<p style=""color: red; font-size:300%;"">incorrect: $0</p>","null","html-keyboard-response","67","1410731","0.0-32.0-8.3","","","","","","","","",""
"null","<div style=""font-size:60px;""> </div>","null","html-keyboard-response","68","1411783","0.0-32.0-0.4","","","fixation_1","","","","","",""
"null","","null","image-keyboard-response","69","1411788","0.0-32.0-1.4","","","test","rightarrow","0","1","FALSE","FALSE",""
"null","<div style=""font-size:60px;""> </div>","null","html-keyboard-response","70","1412091","0.0-32.0-2.4","","","fixation_2","","","","","",""
"null","img_1.bmp","null","image-keyboard-response","71","1413092","0.0-32.0-3.4","","","img_on","","","","","",""
"null","<div style=""font-size:60px;""> </div>","null","html-keyboard-response","72","1413393","0.0-32.0-4.4","","","fixation_3","","","","","",""
"null","","null","html-keyboard-response","73","1413397","0.0-32.0-5.4","","","test","rightarrow","0","1","FALSE","FALSE",""
"null","<div style=""font-size:60px;""> </div>","null","html-keyboard-response","74","1413698","0.0-32.0-6.4","","","fixation_4","","","","","",""
"3158.4000000059605","arrows.png","40","image-keyboard-response","75","1416857","0.0-32.0-7.4","","","test","rightarrow","0","1","FALSE","FALSE","false"
"null","<p style=""color: red; font-size:300%;"">incorrect: $0</p>","null","html-keyboard-response","76","1418538","0.0-32.0-8.4","","","","","","","","",""
"null","<div style=""font-size:60px;""> </div>","null","html-keyboard-response","77","1420538","0.0-32.0-0.5","","","fixation_1","","","","","",""
"null","","null","image-keyboard-response","78","1421540","0.0-32.0-1.5","","","test","uparrow","0","1","FALSE","FALSE",""
"null","<div style=""font-size:60px;""> </div>","null","html-keyboard-response","79","1422539","0.0-32.0-2.5","","","fixation_2","","","","","",""
"null","img_4.bmp","null","image-keyboard-response","80","1424539","0.0-32.0-3.5","","","img_on","","","","","",""
"null","<div style=""font-size:60px;""> </div>","null","html-keyboard-response","81","1425539","0.0-32.0-4.5","","","fixation_3","","","","","",""
"null","","null","html-keyboard-response","82","1426539","0.0-32.0-5.5","","","test","uparrow","0","1","FALSE","FALSE",""
"null","<div style=""font-size:60px;""> </div>","null","html-keyboard-response","83","1427539","0.0-32.0-6.5","","","fixation_4","","","","","",""
"null","arrows.png","null","image-keyboard-response","84","1435540","0.0-32.0-7.5","","","test","uparrow","0","1","FALSE","FALSE","false"
"null","<p style=""color: red; font-size:300%;"">incorrect: $0</p>","null","html-keyboard-response","85","1438539","0.0-32.0-8.5","","","","","","","","",""
"null","<div style=""font-size:60px;""> </div>","null","html-keyboard-response","86","1441539","0.0-32.0-0.6","","","fixation_1","","","","","",""
"null","","null","image-keyboard-response","87","1442539","0.0-32.0-1.6","","","test","leftarrow","1","1","FALSE","FALSE",""
"null","<div style=""font-size:60px;""> </div>","null","html-keyboard-response","88","1443539","0.0-32.0-2.6","","","fixation_2","","","","","",""
"null","img_3.bmp","null","image-keyboard-response","89","1445544","0.0-32.0-3.6","","","img_on","","","","","",""
"null","<div style=""font-size:60px;""> </div>","null","html-keyboard-response","90","1446538","0.0-32.0-4.6","","","fixation_3","","","","","",""
"null","","null","html-keyboard-response","91","1447539","0.0-32.0-5.6","","","test","leftarrow","1","1","FALSE","FALSE",""
"null","<div style=""font-size:60px;""> </div>","null","html-keyboard-response","92","1448539","0.0-32.0-6.6","","","fixation_4","","","","","",""
"6230.5","arrows.png","37","image-keyboard-response","93","1454770","0.0-32.0-7.6","","","test","leftarrow","1","1","FALSE","FALSE","true"
"null","<p style=""color: green; font-size:300%;"">correct: $7.50</p>","null","html-keyboard-response","94","1456021","0.0-32.0-8.6","","","","","","","","",""
"null","<div style=""font-size:60px;""> </div>","null","html-keyboard-response","95","1457579","0.0-32.0-0.7","","","fixation_1","","","","","",""
"null","","null","image-keyboard-response","96","1457584","0.0-32.0-1.7","","","test","downarrow","1","1","FALSE","FALSE",""
"null","<div style=""font-size:60px;""> </div>","null","html-keyboard-response","97","1457886","0.0-32.0-2.7","","","fixation_2","","","","","",""
"null","img_2.bmp","null","image-keyboard-response","98","1458887","0.0-32.0-3.7","","","img_on","","","","","",""
"null","<div style=""font-size:60px;""> </div>","null","html-keyboard-response","99","1459188","0.0-32.0-4.7","","","fixation_3","","","","","",""
"null","","null","html-keyboard-response","100","1459193","0.0-32.0-5.7","","","test","downarrow","1","1","FALSE","FALSE",""
"null","<div style=""font-size:60px;""> </div>","null","html-keyboard-response","101","1459494","0.0-32.0-6.7","","","fixation_4","","","","","",""
"523.9000000059605","arrows.png","38","image-keyboard-response","102","1460019","0.0-32.0-7.7","","","test","downarrow","1","1","FALSE","FALSE","false"
"null","<p style=""color: red; font-size:300%;"">incorrect: $0</p>","null","html-keyboard-response","103","1461271","0.0-32.0-8.7","","","","","","","","",""
"null","<div style=""font-size:60px;""> </div>","null","html-keyboard-response","104","1462073","0.0-32.0-0.8","","","fixation_1","","","","","",""
"null","","null","image-keyboard-response","105","1462078","0.0-32.0-1.8","","","test","downarrow","1","1","FALSE","FALSE",""
"null","<div style=""font-size:60px;""> </div>","null","html-keyboard-response","106","1462379","0.0-32.0-2.8","","","fixation_2","","","","","",""
"null","img_2.bmp","null","image-keyboard-response","107","1463380","0.0-32.0-3.8","","","img_on","","","","","",""
"null","<div style=""font-size:60px;""> </div>","null","html-keyboard-response","108","1463681","0.0-32.0-4.8","","","fixation_3","","","","","",""
"null","","null","html-keyboard-response","109","1463686","0.0-32.0-5.8","","","test","downarrow","1","1","FALSE","FALSE",""
"null","<div style=""font-size:60px;""> </div>","null","html-keyboard-response","110","1463994","0.0-32.0-6.8","","","fixation_4","","","","","",""
"343.5","arrows.png","37","image-keyboard-response","111","1464338","0.0-32.0-7.8","","","test","downarrow","1","1","FALSE","FALSE","false"
"null","<p style=""color: red; font-size:300%;"">incorrect: $0</p>","null","html-keyboard-response","112","1465589","0.0-32.0-8.8","","","","","","","","",""
"null","<div style=""font-size:60px;""> </div>","null","html-keyboard-response","113","1466142","0.0-32.0-0.9","","","fixation_1","","","","","",""
"null","","null","image-keyboard-response","114","1466146","0.0-32.0-1.9","","","test","rightarrow","0","1","FALSE","FALSE",""
"null","<div style=""font-size:60px;""> </div>","null","html-keyboard-response","115","1466450","0.0-32.0-2.9","","","fixation_2","","","","","",""
"null","img_1.bmp","null","image-keyboard-response","116","1467456","0.0-32.0-3.9","","","img_on","","","","","",""
"null","<div style=""font-size:60px;""> </div>","null","html-keyboard-response","117","1467757","0.0-32.0-4.9","","","fixation_3","","","","","",""
"null","","null","html-keyboard-response","118","1467763","0.0-32.0-5.9","","","test","rightarrow","0","1","FALSE","FALSE",""
"null","<div style=""font-size:60px;""> </div>","null","html-keyboard-response","119","1468064","0.0-32.0-6.9","","","fixation_4","","","","","",""
"521.5","arrows.png","38","image-keyboard-response","120","1468586","0.0-32.0-7.9","","","test","rightarrow","0","1","FALSE","FALSE","false"
"null","<p style=""color: red; font-size:300%;"">incorrect: $0</p>","null","html-keyboard-response","121","1469838","0.0-32.0-8.9","","","","","","","","",""
"null","<div style=""font-size:60px;""> </div>","null","html-keyboard-response","122","1471141","0.0-32.0-0.10","","","fixation_1","","","","","",""
"null","","null","image-keyboard-response","123","1471146","0.0-32.0-1.10","","","test","uparrow","0","1","FALSE","FALSE",""
"null","<div style=""font-size:60px;""> </div>","null","html-keyboard-response","124","1471447","0.0-32.0-2.10","","","fixation_2","","","","","",""
"null","img_4.bmp","null","image-keyboard-response","125","1472448","0.0-32.0-3.10","","","img_on","","","","","",""
"null","<div style=""font-size:60px;""> </div>","null","html-keyboard-response","126","1472749","0.0-32.0-4.10","","","fixation_3","","","","","",""
"null","","null","html-keyboard-response","127","1472754","0.0-32.0-5.10","","","test","uparrow","0","1","FALSE","FALSE",""
"null","<div style=""font-size:60px;""> </div>","null","html-keyboard-response","128","1473055","0.0-32.0-6.10","","","fixation_4","","","","","",""
"507.20000000298023","arrows.png","39","image-keyboard-response","129","1473563","0.0-32.0-7.10","","","test","uparrow","0","1","FALSE","FALSE","false"
"null","<p style=""color: red; font-size:300%;"">incorrect: $0</p>","null","html-keyboard-response","130","1474814","0.0-32.0-8.10","","","","","","","","",""
"null","<div style=""font-size:60px;""> </div>","null","html-keyboard-response","131","1475366","0.0-32.0-0.11","","","fixation_1","","","","","",""
"null","","null","image-keyboard-response","132","1475371","0.0-32.0-1.11","","","test","leftarrow","1","1","FALSE","FALSE",""
"null","<div style=""font-size:60px;""> </div>","null","html-keyboard-response","133","1475672","0.0-32.0-2.11","","","fixation_2","","","","","",""
"null","img_3.bmp","null","image-keyboard-response","134","1476674","0.0-32.0-3.11","","","img_on","","","","","",""
"null","<div style=""font-size:60px;""> </div>","null","html-keyboard-response","135","1476975","0.0-32.0-4.11","","","fixation_3","","","","","",""
"null","","null","html-keyboard-response","136","1476980","0.0-32.0-5.11","","","test","leftarrow","1","1","FALSE","FALSE",""
"null","<div style=""font-size:60px;""> </div>","null","html-keyboard-response","137","1477281","0.0-32.0-6.11","","","fixation_4","","","","","",""
"561.0999999940395","arrows.png","40","image-keyboard-response","138","1477842","0.0-32.0-7.11","","","test","leftarrow","1","1","FALSE","FALSE","false"
"null","<p style=""color: red; font-size:300%;"">incorrect: $0</p>","null","html-keyboard-response","139","1479094","0.0-32.0-8.11","","","","","","","","",""
"null","<div style=""font-size:60px;""> </div>","null","html-keyboard-response","140","1480647","0.0-32.0-0.12","","","fixation_1","","","","","",""
"null","","null","image-keyboard-response","141","1480652","0.0-32.0-1.12","","","test","uparrow","0","1","FALSE","FALSE",""
"null","<div style=""font-size:60px;""> </div>","null","html-keyboard-response","142","1481539","0.0-32.0-2.12","","","fixation_2","","","","","",""
"null","img_4.bmp","null","image-keyboard-response","143","1483539","0.0-32.0-3.12","","","img_on","","","","","",""
"null","<div style=""font-size:60px;""> </div>","null","html-keyboard-response","144","1484539","0.0-32.0-4.12","","","fixation_3","","","","","",""
"null","","null","html-keyboard-response","145","1485540","0.0-32.0-5.12","","","test","uparrow","0","1","FALSE","FALSE",""
"null","<div style=""font-size:60px;""> </div>","null","html-keyboard-response","146","1486539","0.0-32.0-6.12","","","fixation_4","","","","","",""
"null","arrows.png","null","image-keyboard-response","147","1494540","0.0-32.0-7.12","","","test","uparrow","0","1","FALSE","FALSE","false"
"null","<p style=""color: red; font-size:300%;"">incorrect: $0</p>","null","html-keyboard-response","148","1497539","0.0-32.0-8.12","","","","","","","","",""
"null","<div style=""font-size:60px;""> </div>","null","html-keyboard-response","149","1500539","0.0-32.0-0.13","","","fixation_1","","","","","",""
"null","","null","image-keyboard-response","150","1501539","0.0-32.0-1.13","","","test","leftarrow","1","1","FALSE","FALSE",""
"null","<div style=""font-size:60px;""> </div>","null","html-keyboard-response","151","1502539","0.0-32.0-2.13","","","fixation_2","","","","","",""
"null","img_3.bmp","null","image-keyboard-response","152","1504540","0.0-32.0-3.13","","","img_on","","","","","",""
"null","<div style=""font-size:60px;""> </div>","null","html-keyboard-response","153","1505539","0.0-32.0-4.13","","","fixation_3","","","","","",""
"null","","null","html-keyboard-response","154","1506539","0.0-32.0-5.13","","","test","leftarrow","1","1","FALSE","FALSE",""
"null","<div style=""font-size:60px;""> </div>","null","html-keyboard-response","155","1507541","0.0-32.0-6.13","","","fixation_4","","","","","",""
"null","arrows.png","null","image-keyboard-response","156","1515540","0.0-32.0-7.13","","","test","leftarrow","1","1","FALSE","FALSE","false"
"null","<p style=""color: red; font-size:300%;"">incorrect: $0</p>","null","html-keyboard-response","157","1518539","0.0-32.0-8.13","","","","","","","","",""
"null","<div style=""font-size:60px;""> </div>","null","html-keyboard-response","158","1521539","0.0-32.0-0.14","","","fixation_1","","","","","",""
"null","","null","image-keyboard-response","159","1522539","0.0-32.0-1.14","","","test","downarrow","1","1","FALSE","FALSE",""
"null","<div style=""font-size:60px;""> </div>","null","html-keyboard-response","160","1523540","0.0-32.0-2.14","","","fixation_2","","","","","",""
"null","img_2.bmp","null","image-keyboard-response","161","1525540","0.0-32.0-3.14","","","img_on","","","","","",""
"null","<div style=""font-size:60px;""> </div>","null","html-keyboard-response","162","1526539","0.0-32.0-4.14","","","fixation_3","","","","","",""
"null","","null","html-keyboard-response","163","1527539","0.0-32.0-5.14","","","test","downarrow","1","1","FALSE","FALSE",""
"null","<div style=""font-size:60px;""> </div>","null","html-keyboard-response","164","1528539","0.0-32.0-6.14","","","fixation_4","","","","","",""
"null","arrows.png","null","image-keyboard-response","165","1536539","0.0-32.0-7.14","","","test","downarrow","1","1","FALSE","FALSE","false"
"null","<p style=""color: red; font-size:300%;"">incorrect: $0</p>","null","html-keyboard-response","166","1539539","0.0-32.0-8.14","","","","","","","","",""
"null","<div style=""font-size:60px;""> </div>","null","html-keyboard-response","167","1542539","0.0-32.0-0.15","","","fixation_1","","","","","",""
"null","","null","image-keyboard-response","168","1543539","0.0-32.0-1.15","","","test","rightarrow","0","1","FALSE","FALSE",""
"null","<div style=""font-size:60px;""> </div>","null","html-keyboard-response","169","1544539","0.0-32.0-2.15","","","fixation_2","","","","","",""
"null","img_1.bmp","null","image-keyboard-response","170","1546539","0.0-32.0-3.15","","","img_on","","","","","",""
"null","<div style=""font-size:60px;""> </div>","null","html-keyboard-response","171","1547539","0.0-32.0-4.15","","","fixation_3","","","","","",""
"null","","null","html-keyboard-response","172","1548540","0.0-32.0-5.15","","","test","rightarrow","0","1","FALSE","FALSE",""
"null","<div style=""font-size:60px;""> </div>","null","html-keyboard-response","173","1549539","0.0-32.0-6.15","","","fixation_4","","","","","",""
"null","arrows.png","null","image-keyboard-response","174","1556540","0.0-32.0-7.15","","","test","rightarrow","0","1","FALSE","FALSE","false"
"null","<p style=""color: red; font-size:300%;"">incorrect: $0</p>","null","html-keyboard-response","175","1557793","0.0-32.0-8.15","","","","","","","","",""
"null","<div style=""font-size:60px;""> </div>","null","html-keyboard-response","176","1558595","0.0-32.0-0.16","","","fixation_1","","","","","",""
"null","switch_cue.png","null","image-keyboard-response","177","1559596","0.0-32.0-1.16","","","test","rightarrow","0","1","TRUE","TRUE",""
"null","<div style=""font-size:60px;""> </div>","null","html-keyboard-response","178","1559899","0.0-32.0-2.16","","","fixation_2","","","","","",""
"null","img_1.bmp","null","image-keyboard-response","179","1560899","0.0-32.0-3.16","","","img_on","","","","","",""
"null","<div style=""font-size:60px;""> </div>","null","html-keyboard-response","180","1561200","0.0-32.0-4.16","","","fixation_3","","","","","",""
"null","<img src=""CC1.png"" width=200 height=200/>","null","html-keyboard-response","181","1562202","0.0-32.0-5.16","","","test","rightarrow","0","1","TRUE","TRUE",""
"null","<div style=""font-size:60px;""> </div>","null","html-keyboard-response","182","1562503","0.0-32.0-6.16","","","fixation_4","","","","","",""
"326","arrows.png","38","image-keyboard-response","183","1562829","0.0-32.0-7.16","","","test","rightarrow","0","1","TRUE","TRUE","false"
"null","<p style=""color: red; font-size:300%;"">incorrect: $0</p>","null","html-keyboard-response","184","1564081","0.0-32.0-8.16","","","","","","","","",""
"null","<div style=""font-size:60px;""> </div>","null","html-keyboard-response","185","1564645","0.0-32.0-0.17","","","fixation_1","","","","","",""
"null","switch_cue.png","null","image-keyboard-response","186","1565646","0.0-32.0-1.17","","","test","leftarrow","1","1","TRUE","TRUE",""
"null","<div style=""font-size:60px;""> </div>","null","html-keyboard-response","187","1565948","0.0-32.0-2.17","","","fixation_2","","","","","",""
"null","img_3.bmp","null","image-keyboard-response","188","1566949","0.0-32.0-3.17","","","img_on","","","","","",""
"null","<div style=""font-size:60px;""> </div>","null","html-keyboard-response","189","1567251","0.0-32.0-4.17","","","fixation_3","","","","","",""
"null","<img src=""CC1.png"" width=200 height=200/>","null","html-keyboard-response","190","1568252","0.0-32.0-5.17","","","test","leftarrow","1","1","TRUE","TRUE",""
"null","<div style=""font-size:60px;""> </div>","null","html-keyboard-response","191","1568553","0.0-32.0-6.17","","","fixation_4","","","","","",""
"339.6000000089407","arrows.png","37","image-keyboard-response","192","1568893","0.0-32.0-7.17","","","test","leftarrow","1","1","TRUE","TRUE","true"
"null","<p style=""color: green; font-size:300%;"">correct: $7.50</p>","null","html-keyboard-response","193","1570145","0.0-32.0-8.17","","","","","","","","",""
"null","<div style=""font-size:60px;""> </div>","null","html-keyboard-response","194","1571198","0.0-32.0-0.18","","","fixation_1","","","","","",""
"null","switch_cue.png","null","image-keyboard-response","195","1572199","0.0-32.0-1.18","","","test","downarrow","1","1","TRUE","TRUE",""
"null","<div style=""font-size:60px;""> </div>","null","html-keyboard-response","196","1572500","0.0-32.0-2.18","","","fixation_2","","","","","",""
"null","img_2.bmp","null","image-keyboard-response","197","1573501","0.0-32.0-3.18","","","img_on","","","","","",""
"null","<div style=""font-size:60px;""> </div>","null","html-keyboard-response","198","1573806","0.0-32.0-4.18","","","fixation_3","","","","","",""
"null","<img src=""CC1.png"" width=200 height=200/>","null","html-keyboard-response","199","1574807","0.0-32.0-5.18","","","test","downarrow","1","1","TRUE","TRUE",""
"null","<div style=""font-size:60px;""> </div>","null","html-keyboard-response","200","1575108","0.0-32.0-6.18","","","fixation_4","","","","","",""
"456.70000000298023","arrows.png","39","image-keyboard-response","201","1575566","0.0-32.0-7.18","","","test","downarrow","1","1","TRUE","TRUE","false"
"null","<p style=""color: red; font-size:300%;"">incorrect: $0</p>","null","html-keyboard-response","202","1576818","0.0-32.0-8.18","","","","","","","","",""
"null","<div style=""font-size:60px;""> </div>","null","html-keyboard-response","203","1577370","0.0-32.0-0.19","","","fixation_1","","","","","",""
"null","switch_cue.png","null","image-keyboard-response","204","1578371","0.0-32.0-1.19","","","test","uparrow","0","1","TRUE","TRUE",""
"null","<div style=""font-size:60px;""> </div>","null","html-keyboard-response","205","1578672","0.0-32.0-2.19","","","fixation_2","","","","","",""
"null","img_4.bmp","null","image-keyboard-response","206","1579673","0.0-32.0-3.19","","","img_on","","","","","",""
"null","<div style=""font-size:60px;""> </div>","null","html-keyboard-response","207","1579974","0.0-32.0-4.19","","","fixation_3","","","","","",""
"null","<img src=""CC1.png"" width=200 height=200/>","null","html-keyboard-response","208","1580977","0.0-32.0-5.19","","","test","uparrow","0","1","TRUE","TRUE",""
"null","<div style=""font-size:60px;""> </div>","null","html-keyboard-response","209","1581278","0.0-32.0-6.19","","","fixation_4","","","","","",""
"471.09999999403954","arrows.png","40","image-keyboard-response","210","1581749","0.0-32.0-7.19","","","test","uparrow","0","1","TRUE","TRUE","false"
"null","<p style=""color: red; font-size:300%;"">incorrect: $0</p>","null","html-keyboard-response","211","1583001","0.0-32.0-8.19","","","","","","","","",""
"null","<div style=""font-size:60px;""> </div>","null","html-keyboard-response","212","1584053","0.0-32.0-0.20","","","fixation_1","","","","","",""
"null","switch_cue.png","null","image-keyboard-response","213","1585059","0.0-32.0-1.20","","","test","downarrow","0","2","TRUE","TRUE",""
"null","<div style=""font-size:60px;""> </div>","null","html-keyboard-response","214","1585360","0.0-32.0-2.20","","","fixation_2","","","","","",""
"null","img_3.bmp","null","image-keyboard-response","215","1586361","0.0-32.0-3.20","","","img_on","","","","","",""
"null","<div style=""font-size:60px;""> </div>","null","html-keyboard-response","216","1586662","0.0-32.0-4.20","","","fixation_3","","","","","",""
"null","<img src=""CC2.png"" width=200 height=200/>","null","html-keyboard-response","217","1587663","0.0-32.0-5.20","","","test","downarrow","0","2","TRUE","TRUE",""
"null","<div style=""font-size:60px;""> </div>","null","html-keyboard-response","218","1587965","0.0-32.0-6.20","","","fixation_4","","","","","",""
"376","arrows.png","38","image-keyboard-response","219","1588342","0.0-32.0-7.20","","","test","downarrow","0","2","TRUE","TRUE","false"
"null","<p style=""color: red; font-size:300%;"">incorrect: $0</p>","null","html-keyboard-response","220","1589593","0.0-32.0-8.20","","","","","","","","",""
"null","<div style=""font-size:60px;""> </div>","null","html-keyboard-response","221","1590146","0.0-32.0-0.21","","","fixation_1","","","","","",""
"null","","null","image-keyboard-response","222","1590151","0.0-32.0-1.21","","","test","uparrow","1","2","TRUE","FALSE",""
"null","<div style=""font-size:60px;""> </div>","null","html-keyboard-response","223","1590452","0.0-32.0-2.21","","","fixation_2","","","","","",""
"null","img_1.bmp","null","image-keyboard-response","224","1591453","0.0-32.0-3.21","","","img_on","","","","","",""
"null","<div style=""font-size:60px;""> </div>","null","html-keyboard-response","225","1591754","0.0-32.0-4.21","","","fixation_3","","","","","",""
"null","<img src=""CC2.png"" width=200 height=200/>","null","html-keyboard-response","226","1592755","0.0-32.0-5.21","","","test","uparrow","1","2","TRUE","FALSE",""
"null","<div style=""font-size:60px;""> </div>","null","html-keyboard-response","227","1593056","0.0-32.0-6.21","","","fixation_4","","","","","",""
"629","arrows.png","39","image-keyboard-response","228","1593686","0.0-32.0-7.21","","","test","uparrow","1","2","TRUE","FALSE","false"
"null","<p style=""color: red; font-size:300%;"">incorrect: $0</p>","null","html-keyboard-response","229","1594938","0.0-32.0-8.21","","","","","","","","",""
"null","<div style=""font-size:60px;""> </div>","null","html-keyboard-response","230","1596240","0.0-32.0-0.22","","","fixation_1","","","","","",""
"null","","null","image-keyboard-response","231","1596245","0.0-32.0-1.22","","","test","rightarrow","1","2","TRUE","FALSE",""
"null","<div style=""font-size:60px;""> </div>","null","html-keyboard-response","232","1596546","0.0-32.0-2.22","","","fixation_2","","","","","",""
"null","img_2.bmp","null","image-keyboard-response","233","1597547","0.0-32.0-3.22","","","img_on","","","","","",""
"null","<div style=""font-size:60px;""> </div>","null","html-keyboard-response","234","1597848","0.0-32.0-4.22","","","fixation_3","","","","","",""
"null","<img src=""CC2.png"" width=200 height=200/>","null","html-keyboard-response","235","1598849","0.0-32.0-5.22","","","test","rightarrow","1","2","TRUE","FALSE",""
"null","<div style=""font-size:60px;""> </div>","null","html-keyboard-response","236","1599150","0.0-32.0-6.22","","","fixation_4","","","","","",""
"535.4000000059605","arrows.png","37","image-keyboard-response","237","1599686","0.0-32.0-7.22","","","test","rightarrow","1","2","TRUE","FALSE","false"
"null","<p style=""color: red; font-size:300%;"">incorrect: $0</p>","null","html-keyboard-response","238","1601547","0.0-32.0-8.22","","","","","","","","",""
"null","<div style=""font-size:60px;""> </div>","null","html-keyboard-response","239","1603539","0.0-32.0-0.23","","","fixation_1","","","","","",""
"null","","null","image-keyboard-response","240","1604412","0.0-32.0-1.23","","","test","leftarrow","0","2","TRUE","FALSE",""
"null","<div style=""font-size:60px;""> </div>","null","html-keyboard-response","241","1604714","0.0-32.0-2.23","","","fixation_2","","","","","",""
"null","img_4.bmp","null","image-keyboard-response","242","1605716","0.0-32.0-3.23","","","img_on","","","","","",""
"null","<div style=""font-size:60px;""> </div>","null","html-keyboard-response","243","1606017","0.0-32.0-4.23","","","fixation_3","","","","","",""
"null","<img src=""CC2.png"" width=200 height=200/>","null","html-keyboard-response","244","1607018","0.0-32.0-5.23","","","test","leftarrow","0","2","TRUE","FALSE",""
"null","<div style=""font-size:60px;""> </div>","null","html-keyboard-response","245","1607319","0.0-32.0-6.23","","","fixation_4","","","","","",""
"302.5","arrows.png","39","image-keyboard-response","246","1607622","0.0-32.0-7.23","","","test","leftarrow","0","2","TRUE","FALSE","false"
"null","<p style=""color: red; font-size:300%;"">incorrect: $0</p>","null","html-keyboard-response","247","1608874","0.0-32.0-8.23","","","","","","","","",""
"null","<div style=""font-size:60px;""> </div>","null","html-keyboard-response","248","1609427","0.0-32.0-0.24","","","fixation_1","","","","","",""
"null","","null","image-keyboard-response","249","1609432","0.0-32.0-1.24","","","test","leftarrow","0","2","FALSE","FALSE",""
"null","<div style=""font-size:60px;""> </div>","null","html-keyboard-response","250","1609733","0.0-32.0-2.24","","","fixation_2","","","","","",""
"null","img_4.bmp","null","image-keyboard-response","251","1610734","0.0-32.0-3.24","","","img_on","","","","","",""
"null","<div style=""font-size:60px;""> </div>","null","html-keyboard-response","252","1611035","0.0-32.0-4.24","","","fixation_3","","","","","",""
"null","","null","html-keyboard-response","253","1611040","0.0-32.0-5.24","","","test","leftarrow","0","2","FALSE","FALSE",""
"null","<div style=""font-size:60px;""> </div>","null","html-keyboard-response","254","1611341","0.0-32.0-6.24","","","fixation_4","","","","","",""
"697.3000000119209","arrows.png","37","image-keyboard-response","255","1612039","0.0-32.0-7.24","","","test","leftarrow","0","2","FALSE","FALSE","true"
"null","<p style=""color: green; font-size:300%;"">correct: $2.50</p>","null","html-keyboard-response","256","1613290","0.0-32.0-8.24","","","","","","","","",""
"null","<div style=""font-size:60px;""> </div>","null","html-keyboard-response","257","1614842","0.0-32.0-0.25","","","fixation_1","","","","","",""
"null","","null","image-keyboard-response","258","1614847","0.0-32.0-1.25","","","test","downarrow","0","2","FALSE","FALSE",""
"null","<div style=""font-size:60px;""> </div>","null","html-keyboard-response","259","1615159","0.0-32.0-2.25","","","fixation_2","","","","","",""
"null","img_3.bmp","null","image-keyboard-response","260","1616160","0.0-32.0-3.25","","","img_on","","","","","",""
"null","<div style=""font-size:60px;""> </div>","null","html-keyboard-response","261","1616461","0.0-32.0-4.25","","","fixation_3","","","","","",""
"null","","null","html-keyboard-response","262","1616466","0.0-32.0-5.25","","","test","downarrow","0","2","FALSE","FALSE",""
"null","<div style=""font-size:60px;""> </div>","null","html-keyboard-response","263","1616767","0.0-32.0-6.25","","","fixation_4","","","","","",""
"830.7999999970198","arrows.png","37","image-keyboard-response","264","1617598","0.0-32.0-7.25","","","test","downarrow","0","2","FALSE","FALSE","false"
"null","<p style=""color: red; font-size:300%;"">incorrect: $0</p>","null","html-keyboard-response","265","1618851","0.0-32.0-8.25","","","","","","","","",""
"null","<div style=""font-size:60px;""> </div>","null","html-keyboard-response","266","1619653","0.0-32.0-0.26","","","fixation_1","","","","","",""
"null","","null","image-keyboard-response","267","1619658","0.0-32.0-1.26","","","test","rightarrow","1","2","FALSE","FALSE",""
"null","<div style=""font-size:60px;""> </div>","null","html-keyboard-response","268","1619959","0.0-32.0-2.26","","","fixation_2","","","","","",""
"null","img_2.bmp","null","image-keyboard-response","269","1620960","0.0-32.0-3.26","","","img_on","","","","","",""
"null","<div style=""font-size:60px;""> </div>","null","html-keyboard-response","270","1621261","0.0-32.0-4.26","","","fixation_3","","","","","",""
"null","","null","html-keyboard-response","271","1621266","0.0-32.0-5.26","","","test","rightarrow","1","2","FALSE","FALSE",""
"null","<div style=""font-size:60px;""> </div>","null","html-keyboard-response","272","1621572","0.0-32.0-6.26","","","fixation_4","","","","","",""
"2458.3999999910593","arrows.png","39","image-keyboard-response","273","1624031","0.0-32.0-7.26","","","test","rightarrow","1","2","FALSE","FALSE","true"
"null","<p style=""color: green; font-size:300%;"">correct: $7.50</p>","null","html-keyboard-response","274","1625283","0.0-32.0-8.26","","","","","","","","",""
"null","<div style=""font-size:60px;""> </div>","null","html-keyboard-response","275","1626085","0.0-32.0-0.27","","","fixation_1","","","","","",""
"null","","null","image-keyboard-response","276","1626090","0.0-32.0-1.27","","","test","uparrow","1","2","FALSE","FALSE",""
"null","<div style=""font-size:60px;""> </div>","null","html-keyboard-response","277","1626391","0.0-32.0-2.27","","","fixation_2","","","","","",""
"null","img_1.bmp","null","image-keyboard-response","278","1627392","0.0-32.0-3.27","","","img_on","","","","","",""
"null","<div style=""font-size:60px;""> </div>","null","html-keyboard-response","279","1627693","0.0-32.0-4.27","","","fixation_3","","","","","",""
"null","","null","html-keyboard-response","280","1627698","0.0-32.0-5.27","","","test","uparrow","1","2","FALSE","FALSE",""
"null","<div style=""font-size:60px;""> </div>","null","html-keyboard-response","281","1627999","0.0-32.0-6.27","","","fixation_4","","","","","",""
"526.9000000059605","arrows.png","37","image-keyboard-response","282","1628527","0.0-32.0-7.27","","","test","uparrow","1","2","FALSE","FALSE","false"
"null","<p style=""color: red; font-size:300%;"">incorrect: $0</p>","null","html-keyboard-response","283","1629779","0.0-32.0-8.27","","","","","","","","",""
"null","<div style=""font-size:60px;""> </div>","null","html-keyboard-response","284","1630831","0.0-32.0-0.28","","","fixation_1","","","","","",""
"null","","null","image-keyboard-response","285","1630836","0.0-32.0-1.28","","","test","rightarrow","1","2","FALSE","FALSE",""
"null","<div style=""font-size:60px;""> </div>","null","html-keyboard-response","286","1631148","0.0-32.0-2.28","","","fixation_2","","","","","",""
"null","img_2.bmp","null","image-keyboard-response","287","1632149","0.0-32.0-3.28","","","img_on","","","","","",""
"null","<div style=""font-size:60px;""> </div>","null","html-keyboard-response","288","1632450","0.0-32.0-4.28","","","fixation_3","","","","","",""
"null","","null","html-keyboard-response","289","1632455","0.0-32.0-5.28","","","test","rightarrow","1","2","FALSE","FALSE",""
"null","<div style=""font-size:60px;""> </div>","null","html-keyboard-response","290","1632756","0.0-32.0-6.28","","","fixation_4","","","","","",""
"442.19999998807907","arrows.png","38","image-keyboard-response","291","1633199","0.0-32.0-7.28","","","test","rightarrow","1","2","FALSE","FALSE","false"
"null","<p style=""color: red; font-size:300%;"">incorrect: $0</p>","null","html-keyboard-response","292","1634451","0.0-32.0-8.28","","","","","","","","",""
"null","<div style=""font-size:60px;""> </div>","null","html-keyboard-response","293","1635756","0.0-32.0-0.29","","","fixation_1","","","","","",""
"null","","null","image-keyboard-response","294","1635762","0.0-32.0-1.29","","","test","downarrow","0","2","FALSE","FALSE",""
"null","<div style=""font-size:60px;""> </div>","null","html-keyboard-response","295","1636063","0.0-32.0-2.29","","","fixation_2","","","","","",""
"null","img_3.bmp","null","image-keyboard-response","296","1637064","0.0-32.0-3.29","","","img_on","","","","","",""
"null","<div style=""font-size:60px;""> </div>","null","html-keyboard-response","297","1637365","0.0-32.0-4.29","","","fixation_3","","","","","",""
"null","","null","html-keyboard-response","298","1637370","0.0-32.0-5.29","","","test","downarrow","0","2","FALSE","FALSE",""
"null","<div style=""font-size:60px;""> </div>","null","html-keyboard-response","299","1637671","0.0-32.0-6.29","","","fixation_4","","","","","",""
"567.6000000089407","arrows.png","39","image-keyboard-response","300","1638240","0.0-32.0-7.29","","","test","downarrow","0","2","FALSE","FALSE","false"
"null","<p style=""color: red; font-size:300%;"">incorrect: $0</p>","null","html-keyboard-response","301","1639539","0.0-32.0-8.29","","","","","","","","",""
"null","<div style=""font-size:60px;""> </div>","null","html-keyboard-response","302","1641539","0.0-32.0-0.30","","","fixation_1","","","","","",""
"null","","null","image-keyboard-response","303","1642293","0.0-32.0-1.30","","","test","uparrow","1","2","FALSE","FALSE",""
"null","<div style=""font-size:60px;""> </div>","null","html-keyboard-response","304","1642593","0.0-32.0-2.30","","","fixation_2","","","","","",""
"null","img_1.bmp","null","image-keyboard-response","305","1643595","0.0-32.0-3.30","","","img_on","","","","","",""
"null","<div style=""font-size:60px;""> </div>","null","html-keyboard-response","306","1643896","0.0-32.0-4.30","","","fixation_3","","","","","",""
"null","","null","html-keyboard-response","307","1643902","0.0-32.0-5.30","","","test","uparrow","1","2","FALSE","FALSE",""
"null","<div style=""font-size:60px;""> </div>","null","html-keyboard-response","308","1644203","0.0-32.0-6.30","","","fixation_4","","","","","",""
"531.9000000059605","arrows.png","38","image-keyboard-response","309","1644735","0.0-32.0-7.30","","","test","uparrow","1","2","FALSE","FALSE","true"
"null","<p style=""color: green; font-size:300%;"">correct: $7.50</p>","null","html-keyboard-response","310","1646540","0.0-32.0-8.30","","","","","","","","",""
"null","<div style=""font-size:60px;""> </div>","null","html-keyboard-response","311","1648909","0.0-32.0-0.31","","","fixation_1","","","","","",""
"null","","null","image-keyboard-response","312","1648915","0.0-32.0-1.31","","","test","leftarrow","0","2","FALSE","FALSE",""
"null","<div style=""font-size:60px;""> </div>","null","html-keyboard-response","313","1649216","0.0-32.0-2.31","","","fixation_2","","","","","",""
"null","img_4.bmp","null","image-keyboard-response","314","1650217","0.0-32.0-3.31","","","img_on","","","","","",""
"null","<div style=""font-size:60px;""> </div>","null","html-keyboard-response","315","1650518","0.0-32.0-4.31","","","fixation_3","","","","","",""
"null","","null","html-keyboard-response","316","1650523","0.0-32.0-5.31","","","test","leftarrow","0","2","FALSE","FALSE",""
"null","<div style=""font-size:60px;""> </div>","null","html-keyboard-response","317","1650824","0.0-32.0-6.31","","","fixation_4","","","","","",""
"534.7999999970198","arrows.png","37","image-keyboard-response","318","1651359","0.0-32.0-7.31","","","test","leftarrow","0","2","FALSE","FALSE","true"
"null","<p style=""color: green; font-size:300%;"">correct: $2.50</p>","null","html-keyboard-response","319","1653539","0.0-32.0-8.31","","","","","","","","",""
"null","<div style=""font-size:60px;""> </div>","null","html-keyboard-response","320","1655539","0.0-32.0-0.32","","","fixation_1","","","","","",""
"null","","null","image-keyboard-response","321","1656539","0.0-32.0-1.32","","","test","leftarrow","0","2","FALSE","FALSE",""
"null","<div style=""font-size:60px;""> </div>","null","html-keyboard-response","322","1656841","0.0-32.0-2.32","","","fixation_2","","","","","",""
"null","img_4.bmp","null","image-keyboard-response","323","1657842","0.0-32.0-3.32","","","img_on","","","","","",""
"null","<div style=""font-size:60px;""> </div>","null","html-keyboard-response","324","1658143","0.0-32.0-4.32","","","fixation_3","","","","","",""
"null","","null","html-keyboard-response","325","1658148","0.0-32.0-5.32","","","test","leftarrow","0","2","FALSE","FALSE",""
"null","<div style=""font-size:60px;""> </div>","null","html-keyboard-response","326","1658449","0.0-32.0-6.32","","","fixation_4","","","","","",""
"325.90000000596046","arrows.png","38","image-keyboard-response","327","1658776","0.0-32.0-7.32","","","test","leftarrow","0","2","FALSE","FALSE","false"
"null","<p style=""color: red; font-size:300%;"">incorrect: $0</p>","null","html-keyboard-response","328","1660027","0.0-32.0-8.32","","","","","","","","",""
"null","<div style=""font-size:60px;""> </div>","null","html-keyboard-response","329","1661078","0.0-32.0-0.33","","","fixation_1","","","","","",""
"null","","null","image-keyboard-response","330","1661084","0.0-32.0-1.33","","","test","rightarrow","1","2","FALSE","FALSE",""
"null","<div style=""font-size:60px;""> </div>","null","html-keyboard-response","331","1661386","0.0-32.0-2.33","","","fixation_2","","","","","",""
"null","img_2.bmp","null","image-keyboard-response","332","1662388","0.0-32.0-3.33","","","img_on","","","","","",""
"null","<div style=""font-size:60px;""> </div>","null","html-keyboard-response","333","1662689","0.0-32.0-4.33","","","fixation_3","","","","","",""
"null","","null","html-keyboard-response","334","1662694","0.0-32.0-5.33","","","test","rightarrow","1","2","FALSE","FALSE",""
"null","<div style=""font-size:60px;""> </div>","null","html-keyboard-response","335","1662995","0.0-32.0-6.33","","","fixation_4","","","","","",""
"477","arrows.png","38","image-keyboard-response","336","1663472","0.0-32.0-7.33","","","test","rightarrow","1","2","FALSE","FALSE","false"
"null","<p style=""color: red; font-size:300%;"">incorrect: $0</p>","null","html-keyboard-response","337","1664724","0.0-32.0-8.33","","","","","","","","",""
"null","<div style=""font-size:60px;""> </div>","null","html-keyboard-response","338","1666026","0.0-32.0-0.34","","","fixation_1","","","","","",""
"null","","null","image-keyboard-response","339","1666032","0.0-32.0-1.34","","","test","downarrow","0","2","FALSE","FALSE",""
"null","<div style=""font-size:60px;""> </div>","null","html-keyboard-response","340","1666334","0.0-32.0-2.34","","","fixation_2","","","","","",""
"null","img_3.bmp","null","image-keyboard-response","341","1667335","0.0-32.0-3.34","","","img_on","","","","","",""
"null","<div style=""font-size:60px;""> </div>","null","html-keyboard-response","342","1667636","0.0-32.0-4.34","","","fixation_3","","","","","",""
"null","","null","html-keyboard-response","343","1667641","0.0-32.0-5.34","","","test","downarrow","0","2","FALSE","FALSE",""
"null","<div style=""font-size:60px;""> </div>","null","html-keyboard-response","344","1667942","0.0-32.0-6.34","","","fixation_4","","","","","",""
"425.5","arrows.png","37","image-keyboard-response","345","1668368","0.0-32.0-7.34","","","test","downarrow","0","2","FALSE","FALSE","false"
"null","<p style=""color: red; font-size:300%;"">incorrect: $0</p>","null","html-keyboard-response","346","1669621","0.0-32.0-8.34","","","","","","","","",""
"null","<div style=""font-size:60px;""> </div>","null","html-keyboard-response","347","1670173","0.0-32.0-0.35","","","fixation_1","","","","","",""
"null","","null","image-keyboard-response","348","1670178","0.0-32.0-1.35","","","test","uparrow","1","2","FALSE","FALSE",""
"null","<div style=""font-size:60px;""> </div>","null","html-keyboard-response","349","1670479","0.0-32.0-2.35","","","fixation_2","","","","","",""
"null","img_1.bmp","null","image-keyboard-response","350","1671481","0.0-32.0-3.35","","","img_on","","","","","",""
"null","<div style=""font-size:60px;""> </div>","null","html-keyboard-response","351","1671783","0.0-32.0-4.35","","","fixation_3","","","","","",""
"null","","null","html-keyboard-response","352","1671789","0.0-32.0-5.35","","","test","uparrow","1","2","FALSE","FALSE",""
"null","<div style=""font-size:60px;""> </div>","null","html-keyboard-response","353","1672090","0.0-32.0-6.35","","","fixation_4","","","","","",""
"534.2999999970198","arrows.png","39","image-keyboard-response","354","1672625","0.0-32.0-7.35","","","test","uparrow","1","2","FALSE","FALSE","false"
"null","<p style=""color: red; font-size:300%;"">incorrect: $0</p>","null","html-keyboard-response","355","1674584","0.0-32.0-8.35","","","","","","","","",""
"null","<div style=""font-size:60px;""> </div>","null","html-keyboard-response","356","1675835","0.0-32.0-0.36","","","fixation_1","","","","","",""
"null","","null","image-keyboard-response","357","1675840","0.0-32.0-1.36","","","test","leftarrow","0","2","FALSE","FALSE",""
"null","<div style=""font-size:60px;""> </div>","null","html-keyboard-response","358","1676142","0.0-32.0-2.36","","","fixation_2","","","","","",""
"null","img_4.bmp","null","image-keyboard-response","359","1677143","0.0-32.0-3.36","","","img_on","","","","","",""
"null","<div style=""font-size:60px;""> </div>","null","html-keyboard-response","360","1677444","0.0-32.0-4.36","","","fixation_3","","","","","",""
"null","","null","html-keyboard-response","361","1677450","0.0-32.0-5.36","","","test","leftarrow","0","2","FALSE","FALSE",""
"null","<div style=""font-size:60px;""> </div>","null","html-keyboard-response","362","1677751","0.0-32.0-6.36","","","fixation_4","","","","","",""
"288.90000000596046","arrows.png","37","image-keyboard-response","363","1678040","0.0-32.0-7.36","","","test","leftarrow","0","2","FALSE","FALSE","true"
"null","<p style=""color: green; font-size:300%;"">correct: $2.50</p>","null","html-keyboard-response","364","1679539","0.0-32.0-8.36","","","","","","","","",""
"null","<div style=""font-size:60px;""> </div>","null","html-keyboard-response","365","1682539","0.0-32.0-0.37","","","fixation_1","","","","","",""
"null","","null","image-keyboard-response","366","1683539","0.0-32.0-1.37","","","test","uparrow","1","2","FALSE","FALSE",""
"null","<div style=""font-size:60px;""> </div>","null","html-keyboard-response","367","1684539","0.0-32.0-2.37","","","fixation_2","","","","","",""
"null","img_1.bmp","null","image-keyboard-response","368","1686539","0.0-32.0-3.37","","","img_on","","","","","",""
"null","<div style=""font-size:60px;""> </div>","null","html-keyboard-response","369","1686840","0.0-32.0-4.37","","","fixation_3","","","","","",""
"null","","null","html-keyboard-response","370","1686846","0.0-32.0-5.37","","","test","uparrow","1","2","FALSE","FALSE",""
"null","<div style=""font-size:60px;""> </div>","null","html-keyboard-response","371","1687147","0.0-32.0-6.37","","","fixation_4","","","","","",""
"469.09999999403954","arrows.png","39","image-keyboard-response","372","1687617","0.0-32.0-7.37","","","test","uparrow","1","2","FALSE","FALSE","false"
"null","<p style=""color: red; font-size:300%;"">incorrect: $0</p>","null","html-keyboard-response","373","1688869","0.0-32.0-8.37","","","","","","","","",""
"null","<div style=""font-size:60px;""> </div>","null","html-keyboard-response","374","1690554","0.0-32.0-0.38","","","fixation_1","","","","","",""
"null","","null","image-keyboard-response","375","1691539","0.0-32.0-1.38","","","test","rightarrow","1","2","FALSE","FALSE",""
"null","<div style=""font-size:60px;""> </div>","null","html-keyboard-response","376","1692539","0.0-32.0-2.38","","","fixation_2","","","","","",""
"null","img_2.bmp","null","image-keyboard-response","377","1694540","0.0-32.0-3.38","","","img_on","","","","","",""
"null","<div style=""font-size:60px;""> </div>","null","html-keyboard-response","378","1695539","0.0-32.0-4.38","","","fixation_3","","","","","",""
"null","","null","html-keyboard-response","379","1696539","0.0-32.0-5.38","","","test","rightarrow","1","2","FALSE","FALSE",""
"null","<div style=""font-size:60px;""> </div>","null","html-keyboard-response","380","1697539","0.0-32.0-6.38","","","fixation_4","","","","","",""
"null","arrows.png","null","image-keyboard-response","381","1705539","0.0-32.0-7.38","","","test","rightarrow","1","2","FALSE","FALSE","false"
"null","<p style=""color: red; font-size:300%;"">incorrect: $0</p>","null","html-keyboard-response","382","1707541","0.0-32.0-8.38","","","","","","","","",""
"null","<div style=""font-size:60px;""> </div>","null","html-keyboard-response","383","1709093","0.0-32.0-0.39","","","fixation_1","","","","","",""
"null","switch_cue.png","null","image-keyboard-response","384","1710099","0.0-32.0-1.39","","","test","downarrow","0","2","TRUE","TRUE",""
"null","<div style=""font-size:60px;""> </div>","null","html-keyboard-response","385","1710400","0.0-32.0-2.39","","","fixation_2","","","","","",""
"null","img_3.bmp","null","image-keyboard-response","386","1711401","0.0-32.0-3.39","","","img_on","","","","","",""
"null","<div style=""font-size:60px;""> </div>","null","html-keyboard-response","387","1711710","0.0-32.0-4.39","","","fixation_3","","","","","",""
"null","<img src=""CC2.png"" width=200 height=200/>","null","html-keyboard-response","388","1712711","0.0-32.0-5.39","","","test","downarrow","0","2","TRUE","TRUE",""
"null","<div style=""font-size:60px;""> </div>","null","html-keyboard-response","389","1713020","0.0-32.0-6.39","","","fixation_4","","","","","",""
"324.3999999910593","arrows.png","38","image-keyboard-response","390","1713346","0.0-32.0-7.39","","","test","downarrow","0","2","TRUE","TRUE","false"
"null","<p style=""color: red; font-size:300%;"">incorrect: $0</p>","null","html-keyboard-response","391","1715539","0.0-32.0-8.39","","","","","","","","",""
"null","<div style=""font-size:60px;""> </div>","null","html-keyboard-response","392","1716840","0.0-32.0-0.40","","","fixation_1","","","","","",""
"null","switch_cue.png","null","image-keyboard-response","393","1717841","0.0-32.0-1.40","","","test","uparrow","0","1","TRUE","TRUE",""
"null","<div style=""font-size:60px;""> </div>","null","html-keyboard-response","394","1718147","0.0-32.0-2.40","","","fixation_2","","","","","",""
"null","img_4.bmp","null","image-keyboard-response","395","1719154","0.0-32.0-3.40","","","img_on","","","","","",""
"null","<div style=""font-size:60px;""> </div>","null","html-keyboard-response","396","1719455","0.0-32.0-4.40","","","fixation_3","","","","","",""
"null","<img src=""CC1.png"" width=200 height=200/>","null","html-keyboard-response","397","1720456","0.0-32.0-5.40","","","test","uparrow","0","1","TRUE","TRUE",""
"null","<div style=""font-size:60px;""> </div>","null","html-keyboard-response","398","1720757","0.0-32.0-6.40","","","fixation_4","","","","","",""
"300.09999999403954","arrows.png","40","image-keyboard-response","399","1721057","0.0-32.0-7.40","","","test","uparrow","0","1","TRUE","TRUE","false"
"null","<p style=""color: red; font-size:300%;"">incorrect: $0</p>","null","html-keyboard-response","400","1722540","0.0-32.0-8.40","","","","","","","","",""
"null","<div style=""font-size:60px;""> </div>","null","html-keyboard-response","401","1725366","0.0-32.0-0.41","","","fixation_1","","","","","",""
"null","","null","image-keyboard-response","402","1725372","0.0-32.0-1.41","","","test","leftarrow","1","1","TRUE","FALSE",""
"null","<div style=""font-size:60px;""> </div>","null","html-keyboard-response","403","1725673","0.0-32.0-2.41","","","fixation_2","","","","","",""
"null","img_3.bmp","null","image-keyboard-response","404","1726674","0.0-32.0-3.41","","","img_on","","","","","",""
"null","<div style=""font-size:60px;""> </div>","null","html-keyboard-response","405","1726975","0.0-32.0-4.41","","","fixation_3","","","","","",""
"null","<img src=""CC1.png"" width=200 height=200/>","null","html-keyboard-response","406","1727977","0.0-32.0-5.41","","","test","leftarrow","1","1","TRUE","FALSE",""
"null","<div style=""font-size:60px;""> </div>","null","html-keyboard-response","407","1728278","0.0-32.0-6.41","","","fixation_4","","","","","",""
"339.70000000298023","arrows.png","39","image-keyboard-response","408","1728618","0.0-32.0-7.41","","","test","leftarrow","1","1","TRUE","FALSE","false"
"null","<p style=""color: red; font-size:300%;"">incorrect: $0</p>","null","html-keyboard-response","409","1730539","0.0-32.0-8.41","","","","","","","","",""
"null","<div style=""font-size:60px;""> </div>","null","html-keyboard-response","410","1733386","0.0-32.0-0.42","","","fixation_1","","","","","",""
"null","","null","image-keyboard-response","411","1733392","0.0-32.0-1.42","","","test","rightarrow","0","1","TRUE","FALSE",""
"null","<div style=""font-size:60px;""> </div>","null","html-keyboard-response","412","1733693","0.0-32.0-2.42","","","fixation_2","","","","","",""
"null","img_1.bmp","null","image-keyboard-response","413","1734694","0.0-32.0-3.42","","","img_on","","","","","",""
"null","<div style=""font-size:60px;""> </div>","null","html-keyboard-response","414","1734995","0.0-32.0-4.42","","","fixation_3","","","","","",""
"null","<img src=""CC1.png"" width=200 height=200/>","null","html-keyboard-response","415","1735996","0.0-32.0-5.42","","","test","rightarrow","0","1","TRUE","FALSE",""
"null","<div style=""font-size:60px;""> </div>","null","html-keyboard-response","416","1736297","0.0-32.0-6.42","","","fixation_4","","","","","",""
"296.29999999701977","arrows.png","38","image-keyboard-response","417","1736594","0.0-32.0-7.42","","","test","rightarrow","0","1","TRUE","FALSE","false"
"null","<p style=""color: red; font-size:300%;"">incorrect: $0</p>","null","html-keyboard-response","418","1738539","0.0-32.0-8.42","","","","","","","","",""
"null","<div style=""font-size:60px;""> </div>","null","html-keyboard-response","419","1740762","0.0-32.0-0.43","","","fixation_1","","","","","",""
"null","","null","image-keyboard-response","420","1740768","0.0-32.0-1.43","","","test","downarrow","1","1","TRUE","FALSE",""
"null","<div style=""font-size:60px;""> </div>","null","html-keyboard-response","421","1741069","0.0-32.0-2.43","","","fixation_2","","","","","",""
"null","img_2.bmp","null","image-keyboard-response","422","1742070","0.0-32.0-3.43","","","img_on","","","","","",""
"null","<div style=""font-size:60px;""> </div>","null","html-keyboard-response","423","1742372","0.0-32.0-4.43","","","fixation_3","","","","","",""
"null","<img src=""CC1.png"" width=200 height=200/>","null","html-keyboard-response","424","1743373","0.0-32.0-5.43","","","test","downarrow","1","1","TRUE","FALSE",""
"null","<div style=""font-size:60px;""> </div>","null","html-keyboard-response","425","1743674","0.0-32.0-6.43","","","fixation_4","","","","","",""
"383.79999999701977","arrows.png","40","image-keyboard-response","426","1744058","0.0-32.0-7.43","","","test","downarrow","1","1","TRUE","FALSE","true"
"null","<p style=""color: green; font-size:300%;"">correct: $7.50</p>","null","html-keyboard-response","427","1745309","0.0-32.0-8.43","","","","","","","","",""
"null","<div style=""font-size:60px;""> </div>","null","html-keyboard-response","428","1746111","0.0-32.0-0.44","","","fixation_1","","","","","",""
"null","","null","image-keyboard-response","429","1746116","0.0-32.0-1.44","","","test","downarrow","1","1","FALSE","FALSE",""
"null","<div style=""font-size:60px;""> </div>","null","html-keyboard-response","430","1746417","0.0-32.0-2.44","","","fixation_2","","","","","",""
"null","img_2.bmp","null","image-keyboard-response","431","1747419","0.0-32.0-3.44","","","img_on","","","","","",""
"null","<div style=""font-size:60px;""> </div>","null","html-keyboard-response","432","1747720","0.0-32.0-4.44","","","fixation_3","","","","","",""
"null","","null","html-keyboard-response","433","1747725","0.0-32.0-5.44","","","test","downarrow","1","1","FALSE","FALSE",""
"null","<div style=""font-size:60px;""> </div>","null","html-keyboard-response","434","1748026","0.0-32.0-6.44","","","fixation_4","","","","","",""
"721.2999999970198","arrows.png","37","image-keyboard-response","435","1748748","0.0-32.0-7.44","","","test","downarrow","1","1","FALSE","FALSE","false"
"null","<p style=""color: red; font-size:300%;"">incorrect: $0</p>","null","html-keyboard-response","436","1749999","0.0-32.0-8.44","","","","","","","","",""
"null","<div style=""font-size:60px;""> </div>","null","html-keyboard-response","437","1750551","0.0-32.0-0.45","","","fixation_1","","","","","",""
"null","","null","image-keyboard-response","438","1750556","0.0-32.0-1.45","","","test","uparrow","0","1","FALSE","FALSE",""
"null","<div style=""font-size:60px;""> </div>","null","html-keyboard-response","439","1750863","0.0-32.0-2.45","","","fixation_2","","","","","",""
"null","img_4.bmp","null","image-keyboard-response","440","1751865","0.0-32.0-3.45","","","img_on","","","","","",""
"null","<div style=""font-size:60px;""> </div>","null","html-keyboard-response","441","1752166","0.0-32.0-4.45","","","fixation_3","","","","","",""
"null","","null","html-keyboard-response","442","1752171","0.0-32.0-5.45","","","test","uparrow","0","1","FALSE","FALSE",""
"null","<div style=""font-size:60px;""> </div>","null","html-keyboard-response","443","1752472","0.0-32.0-6.45","","","fixation_4","","","","","",""
"474.29999999701977","arrows.png","38","image-keyboard-response","444","1752946","0.0-32.0-7.45","","","test","uparrow","0","1","FALSE","FALSE","true"
"null","<p style=""color: green; font-size:300%;"">correct: $2.50</p>","null","html-keyboard-response","445","1754198","0.0-32.0-8.45","","","","","","","","",""
"null","<div style=""font-size:60px;""> </div>","null","html-keyboard-response","446","1755750","0.0-32.0-0.46","","","fixation_1","","","","","",""
"null","","null","image-keyboard-response","447","1755755","0.0-32.0-1.46","","","test","rightarrow","0","1","FALSE","FALSE",""
"null","<div style=""font-size:60px;""> </div>","null","html-keyboard-response","448","1756056","0.0-32.0-2.46","","","fixation_2","","","","","",""
"null","img_1.bmp","null","image-keyboard-response","449","1757058","0.0-32.0-3.46","","","img_on","","","","","",""
"null","<div style=""font-size:60px;""> </div>","null","html-keyboard-response","450","1757359","0.0-32.0-4.46","","","fixation_3","","","","","",""
"null","","null","html-keyboard-response","451","1757364","0.0-32.0-5.46","","","test","rightarrow","0","1","FALSE","FALSE",""
"null","<div style=""font-size:60px;""> </div>","null","html-keyboard-response","452","1757665","0.0-32.0-6.46","","","fixation_4","","","","","",""
"361.3999999910593","arrows.png","40","image-keyboard-response","453","1758027","0.0-32.0-7.46","","","test","rightarrow","0","1","FALSE","FALSE","false"
"null","<p style=""color: red; font-size:300%;"">incorrect: $0</p>","null","html-keyboard-response","454","1759279","0.0-32.0-8.46","","","","","","","","",""
"null","<div style=""font-size:60px;""> </div>","null","html-keyboard-response","455","1759832","0.0-32.0-0.47","","","fixation_1","","","","","",""
"null","","null","image-keyboard-response","456","1759837","0.0-32.0-1.47","","","test","leftarrow","1","1","FALSE","FALSE",""
"null","<div style=""font-size:60px;""> </div>","null","html-keyboard-response","457","1760138","0.0-32.0-2.47","","","fixation_2","","","","","",""
"null","img_3.bmp","null","image-keyboard-response","458","1761139","0.0-32.0-3.47","","","img_on","","","","","",""
"null","<div style=""font-size:60px;""> </div>","null","html-keyboard-response","459","1761441","0.0-32.0-4.47","","","fixation_3","","","","","",""
"null","","null","html-keyboard-response","460","1761446","0.0-32.0-5.47","","","test","leftarrow","1","1","FALSE","FALSE",""
"null","<div style=""font-size:60px;""> </div>","null","html-keyboard-response","461","1761747","0.0-32.0-6.47","","","fixation_4","","","","","",""
"1240.0999999940395","arrows.png","37","image-keyboard-response","462","1762987","0.0-32.0-7.47","","","test","leftarrow","1","1","FALSE","FALSE","true"
"null","<p style=""color: green; font-size:300%;"">correct: $7.50</p>","null","html-keyboard-response","463","1764540","0.0-32.0-8.47","","","","","","","","",""
"null","<div style=""font-size:60px;""> </div>","null","html-keyboard-response","464","1766540","0.0-32.0-0.48","","","fixation_1","","","","","",""
"null","","null","image-keyboard-response","465","1767539","0.0-32.0-1.48","","","test","rightarrow","0","1","FALSE","FALSE",""
"null","<div style=""font-size:60px;""> </div>","null","html-keyboard-response","466","1768539","0.0-32.0-2.48","","","fixation_2","","","","","",""
"null","img_1.bmp","null","image-keyboard-response","467","1770539","0.0-32.0-3.48","","","img_on","","","","","",""
"null","<div style=""font-size:60px;""> </div>","null","html-keyboard-response","468","1771540","0.0-32.0-4.48","","","fixation_3","","","","","",""
"null","","null","html-keyboard-response","469","1772539","0.0-32.0-5.48","","","test","rightarrow","0","1","FALSE","FALSE",""
"null","<div style=""font-size:60px;""> </div>","null","html-keyboard-response","470","1773539","0.0-32.0-6.48","","","fixation_4","","","","","",""
"1351.7000000029802","arrows.png","39","image-keyboard-response","471","1774891","0.0-32.0-7.48","","","test","rightarrow","0","1","FALSE","FALSE","true"
"null","<p style=""color: green; font-size:300%;"">correct: $2.50</p>","null","html-keyboard-response","472","1776146","0.0-32.0-8.48","","","","","","","","",""
"null","<div style=""font-size:60px;""> </div>","null","html-keyboard-response","473","1776698","0.0-32.0-0.49","","","fixation_1","","","","","",""
"null","switch_cue.png","null","image-keyboard-response","474","1777700","0.0-32.0-1.49","","","test","leftarrow","1","1","TRUE","TRUE",""
"null","<div style=""font-size:60px;""> </div>","null","html-keyboard-response","475","1778001","0.0-32.0-2.49","","","fixation_2","","","","","",""
"null","img_3.bmp","null","image-keyboard-response","476","1779002","0.0-32.0-3.49","","","img_on","","","","","",""
"null","<div style=""font-size:60px;""> </div>","null","html-keyboard-response","477","1779303","0.0-32.0-4.49","","","fixation_3","","","","","",""
"null","<img src=""CC1.png"" width=200 height=200/>","null","html-keyboard-response","478","1780304","0.0-32.0-5.49","","","test","leftarrow","1","1","TRUE","TRUE",""
"null","<div style=""font-size:60px;""> </div>","null","html-keyboard-response","479","1780607","0.0-32.0-6.49","","","fixation_4","","","","","",""
"372.8999999910593","arrows.png","37","image-keyboard-response","480","1780980","0.0-32.0-7.49","","","test","leftarrow","1","1","TRUE","TRUE","true"
"null","<p style=""color: green; font-size:300%;"">correct: $7.50</p>","null","html-keyboard-response","481","1782232","0.0-32.0-8.49","","","","","","","","",""
"null","<div style=""font-size:60px;""> </div>","null","html-keyboard-response","482","1784539","0.0-32.0-0.50","","","fixation_1","","","","","",""
"null","switch_cue.png","null","image-keyboard-response","483","1786540","0.0-32.0-1.50","","","test","uparrow","0","1","TRUE","TRUE",""
"null","<div style=""font-size:60px;""> </div>","null","html-keyboard-response","484","1787539","0.0-32.0-2.50","","","fixation_2","","","","","",""
"null","img_4.bmp","null","image-keyboard-response","485","1789539","0.0-32.0-3.50","","","img_on","","","","","",""
"null","<div style=""font-size:60px;""> </div>","null","html-keyboard-response","486","1790539","0.0-32.0-4.50","","","fixation_3","","","","","",""
"null","<img src=""CC1.png"" width=200 height=200/>","null","html-keyboard-response","487","1792539","0.0-32.0-5.50","","","test","uparrow","0","1","TRUE","TRUE",""
"null","<div style=""font-size:60px;""> </div>","null","html-keyboard-response","488","1793484","0.0-32.0-6.50","","","fixation_4","","","","","",""
"431.29999999701977","arrows.png","39","image-keyboard-response","489","1793916","0.0-32.0-7.50","","","test","uparrow","0","1","TRUE","TRUE","false"
"null","<p style=""color: red; font-size:300%;"">incorrect: $0</p>","null","html-keyboard-response","490","1795539","0.0-32.0-8.50","","","","","","","","",""
"null","<div style=""font-size:60px;""> </div>","null","html-keyboard-response","491","1797539","0.0-32.0-0.51","","","fixation_1","","","","","",""
"null","switch_cue.png","null","image-keyboard-response","492","1798553","0.0-32.0-1.51","","","test","downarrow","1","1","TRUE","TRUE",""
"null","<div style=""font-size:60px;""> </div>","null","html-keyboard-response","493","1798854","0.0-32.0-2.51","","","fixation_2","","","","","",""
"null","img_2.bmp","null","image-keyboard-response","494","1799856","0.0-32.0-3.51","","","img_on","","","","","",""
"null","<div style=""font-size:60px;""> </div>","null","html-keyboard-response","495","1800157","0.0-32.0-4.51","","","fixation_3","","","","","",""
"null","<img src=""CC1.png"" width=200 height=200/>","null","html-keyboard-response","496","1801158","0.0-32.0-5.51","","","test","downarrow","1","1","TRUE","TRUE",""
"null","<div style=""font-size:60px;""> </div>","null","html-keyboard-response","497","1801459","0.0-32.0-6.51","","","fixation_4","","","","","",""
"320.29999999701977","arrows.png","37","image-keyboard-response","498","1801780","0.0-32.0-7.51","","","test","downarrow","1","1","TRUE","TRUE","false"
"null","<p style=""color: red; font-size:300%;"">incorrect: $0</p>","null","html-keyboard-response","499","1803538","0.0-32.0-8.51","","","","","","","","",""
"null","<div style=""font-size:60px;""> </div>","null","html-keyboard-response","500","1806539","0.0-32.0-0.52","","","fixation_1","","","","","",""
"null","switch_cue.png","null","image-keyboard-response","501","1808539","0.0-32.0-1.52","","","test","rightarrow","1","2","TRUE","TRUE",""
"null","<div style=""font-size:60px;""> </div>","null","html-keyboard-response","502","1809240","0.0-32.0-2.52","","","fixation_2","","","","","",""
"null","img_2.bmp","null","image-keyboard-response","503","1810242","0.0-32.0-3.52","","","img_on","","","","","",""
"null","<div style=""font-size:60px;""> </div>","null","html-keyboard-response","504","1810542","0.0-32.0-4.52","","","fixation_3","","","","","",""
"null","<img src=""CC2.png"" width=200 height=200/>","null","html-keyboard-response","505","1811543","0.0-32.0-5.52","","","test","rightarrow","1","2","TRUE","TRUE",""
"null","<div style=""font-size:60px;""> </div>","null","html-keyboard-response","506","1811844","0.0-32.0-6.52","","","fixation_4","","","","","",""
"303.40000000596046","arrows.png","38","image-keyboard-response","507","1812148","0.0-32.0-7.52","","","test","rightarrow","1","2","TRUE","TRUE","false"
"null","<p style=""color: red; font-size:300%;"">incorrect: $0</p>","null","html-keyboard-response","508","1813540","0.0-32.0-8.52","","","","","","","","",""
"null","<div style=""font-size:60px;""> </div>","null","html-keyboard-response","509","1815540","0.0-32.0-0.53","","","fixation_1","","","","","",""
"null","","null","image-keyboard-response","510","1816539","0.0-32.0-1.53","","","test","downarrow","0","2","TRUE","FALSE",""
"null","<div style=""font-size:60px;""> </div>","null","html-keyboard-response","511","1817539","0.0-32.0-2.53","","","fixation_2","","","","","",""
"null","img_3.bmp","null","image-keyboard-response","512","1819539","0.0-32.0-3.53","","","img_on","","","","","",""
"null","<div style=""font-size:60px;""> </div>","null","html-keyboard-response","513","1820539","0.0-32.0-4.53","","","fixation_3","","","","","",""
"null","<img src=""CC2.png"" width=200 height=200/>","null","html-keyboard-response","514","1822540","0.0-32.0-5.53","","","test","downarrow","0","2","TRUE","FALSE",""
"null","<div style=""font-size:60px;""> </div>","null","html-keyboard-response","515","1823550","0.0-32.0-6.53","","","fixation_4","","","","","",""
"1006.2999999970198","arrows.png","39","image-keyboard-response","516","1824557","0.0-32.0-7.53","","","test","downarrow","0","2","TRUE","FALSE","false"
"null","<p style=""color: red; font-size:300%;"">incorrect: $0</p>","null","html-keyboard-response","517","1826539","0.0-32.0-8.53","","","","","","","","",""
"null","<div style=""font-size:60px;""> </div>","null","html-keyboard-response","518","1828539","0.0-32.0-0.54","","","fixation_1","","","","","",""
"null","","null","image-keyboard-response","519","1829539","0.0-32.0-1.54","","","test","leftarrow","0","2","TRUE","FALSE",""
"null","<div style=""font-size:60px;""> </div>","null","html-keyboard-response","520","1830539","0.0-32.0-2.54","","","fixation_2","","","","","",""
"null","img_4.bmp","null","image-keyboard-response","521","1832540","0.0-32.0-3.54","","","img_on","","","","","",""
"null","<div style=""font-size:60px;""> </div>","null","html-keyboard-response","522","1833539","0.0-32.0-4.54","","","fixation_3","","","","","",""
"null","<img src=""CC2.png"" width=200 height=200/>","null","html-keyboard-response","523","1835539","0.0-32.0-5.54","","","test","leftarrow","0","2","TRUE","FALSE",""
"null","<div style=""font-size:60px;""> </div>","null","html-keyboard-response","524","1836538","0.0-32.0-6.54","","","fixation_4","","","","","",""
"2506.0999999940395","arrows.png","37","image-keyboard-response","525","1839045","0.0-32.0-7.54","","","test","leftarrow","0","2","TRUE","FALSE","true"
"null","<p style=""color: green; font-size:300%;"">correct: $2.50</p>","null","html-keyboard-response","526","1840297","0.0-32.0-8.54","","","","","","","","",""
"null","<div style=""font-size:60px;""> </div>","null","html-keyboard-response","527","1841539","0.0-32.0-0.55","","","fixation_1","","","","","",""
"null","","null","image-keyboard-response","528","1842539","0.0-32.0-1.55","","","test","uparrow","1","2","TRUE","FALSE",""
"null","<div style=""font-size:60px;""> </div>","null","html-keyboard-response","529","1843539","0.0-32.0-2.55","","","fixation_2","","","","","",""
"null","img_1.bmp","null","image-keyboard-response","530","1845539","0.0-32.0-3.55","","","img_on","","","","","",""
"null","<div style=""font-size:60px;""> </div>","null","html-keyboard-response","531","1846539","0.0-32.0-4.55","","","fixation_3","","","","","",""
"null","<img src=""CC2.png"" width=200 height=200/>","null","html-keyboard-response","532","1848539","0.0-32.0-5.55","","","test","uparrow","1","2","TRUE","FALSE",""
"null","<div style=""font-size:60px;""> </div>","null","html-keyboard-response","533","1849539","0.0-32.0-6.55","","","fixation_4","","","","","",""
"3993.4000000059605","arrows.png","38","image-keyboard-response","534","1853533","0.0-32.0-7.55","","","test","uparrow","1","2","TRUE","FALSE","true"
"null","<p style=""color: green; font-size:300%;"">correct: $7.50</p>","null","html-keyboard-response","535","1854785","0.0-32.0-8.55","","","","","","","","",""
"null","<div style=""font-size:60px;""> </div>","null","html-keyboard-response","536","1856539","0.0-32.0-0.56","","","fixation_1","","","","","",""
"null","","null","image-keyboard-response","537","1857539","0.0-32.0-1.56","","","test","leftarrow","0","2","FALSE","FALSE",""
"null","<div style=""font-size:60px;""> </div>","null","html-keyboard-response","538","1858539","0.0-32.0-2.56","","","fixation_2","","","","","",""
"null","img_4.bmp","null","image-keyboard-response","539","1859540","0.0-32.0-3.56","","","img_on","","","","","",""
"null","<div style=""font-size:60px;""> </div>","null","html-keyboard-response","540","1859842","0.0-32.0-4.56","","","fixation_3","","","","","",""
"null","","null","html-keyboard-response","541","1859847","0.0-32.0-5.56","","","test","leftarrow","0","2","FALSE","FALSE",""
"null","<div style=""font-size:60px;""> </div>","null","html-keyboard-response","542","1860148","0.0-32.0-6.56","","","fixation_4","","","","","",""
"472.6000000089407","arrows.png","39","image-keyboard-response","543","1860622","0.0-32.0-7.56","","","test","leftarrow","0","2","FALSE","FALSE","false"
"null","<p style=""color: red; font-size:300%;"">incorrect: $0</p>","null","html-keyboard-response","544","1861873","0.0-32.0-8.56","","","","","","","","",""
"null","<div style=""font-size:60px;""> </div>","null","html-keyboard-response","545","1862539","0.0-32.0-0.57","","","fixation_1","","","","","",""
"null","","null","image-keyboard-response","546","1863539","0.0-32.0-1.57","","","test","downarrow","0","2","FALSE","FALSE",""
"null","<div style=""font-size:60px;""> </div>","null","html-keyboard-response","547","1864539","0.0-32.0-2.57","","","fixation_2","","","","","",""
"null","img_3.bmp","null","image-keyboard-response","548","1865541","0.0-32.0-3.57","","","img_on","","","","","",""
"null","<div style=""font-size:60px;""> </div>","null","html-keyboard-response","549","1865842","0.0-32.0-4.57","","","fixation_3","","","","","",""
"null","","null","html-keyboard-response","550","1865847","0.0-32.0-5.57","","","test","downarrow","0","2","FALSE","FALSE",""
"null","<div style=""font-size:60px;""> </div>","null","html-keyboard-response","551","1866148","0.0-32.0-6.57","","","fixation_4","","","","","",""
"305.40000000596046","arrows.png","40","image-keyboard-response","552","1866454","0.0-32.0-7.57","","","test","downarrow","0","2","FALSE","FALSE","true"
"null","<p style=""color: green; font-size:300%;"">correct: $2.50</p>","null","html-keyboard-response","553","1868539","0.0-32.0-8.57","","","","","","","","",""
"null","<div style=""font-size:60px;""> </div>","null","html-keyboard-response","554","1870092","0.0-32.0-0.58","","","fixation_1","","","","","",""
"null","","null","image-keyboard-response","555","1870097","0.0-32.0-1.58","","","test","rightarrow","1","2","FALSE","FALSE",""
"null","<div style=""font-size:60px;""> </div>","null","html-keyboard-response","556","1870404","0.0-32.0-2.58","","","fixation_2","","","","","",""
"null","img_2.bmp","null","image-keyboard-response","557","1871405","0.0-32.0-3.58","","","img_on","","","","","",""
"null","<div style=""font-size:60px;""> </div>","null","html-keyboard-response","558","1871706","0.0-32.0-4.58","","","fixation_3","","","","","",""
"null","","null","html-keyboard-response","559","1871711","0.0-32.0-5.58","","","test","rightarrow","1","2","FALSE","FALSE",""
"null","<div style=""font-size:60px;""> </div>","null","html-keyboard-response","560","1872012","0.0-32.0-6.58","","","fixation_4","","","","","",""
"473.40000000596046","arrows.png","37","image-keyboard-response","561","1872486","0.0-32.0-7.58","","","test","rightarrow","1","2","FALSE","FALSE","false"
"null","<p style=""color: red; font-size:300%;"">incorrect: $0</p>","null","html-keyboard-response","562","1873737","0.0-32.0-8.58","","","","","","","","",""
"null","<div style=""font-size:60px;""> </div>","null","html-keyboard-response","563","1874539","0.0-32.0-0.59","","","fixation_1","","","","","",""
"null","","null","image-keyboard-response","564","1874544","0.0-32.0-1.59","","","test","uparrow","1","2","FALSE","FALSE",""
"null","<div style=""font-size:60px;""> </div>","null","html-keyboard-response","565","1874846","0.0-32.0-2.59","","","fixation_2","","","","","",""
"null","img_1.bmp","null","image-keyboard-response","566","1875847","0.0-32.0-3.59","","","img_on","","","","","",""
"null","<div style=""font-size:60px;""> </div>","null","html-keyboard-response","567","1876148","0.0-32.0-4.59","","","fixation_3","","","","","",""
"null","","null","html-keyboard-response","568","1876153","0.0-32.0-5.59","","","test","uparrow","1","2","FALSE","FALSE",""
"null","<div style=""font-size:60px;""> </div>","null","html-keyboard-response","569","1876454","0.0-32.0-6.59","","","fixation_4","","","","","",""
"240.19999998807907","arrows.png","39","image-keyboard-response","570","1876695","0.0-32.0-7.59","","","test","uparrow","1","2","FALSE","FALSE","false"
"null","<p style=""color: red; font-size:300%;"">incorrect: $0</p>","null","html-keyboard-response","571","1877946","0.0-32.0-8.59","","","","","","","","",""
"null","<div style=""font-size:60px;""> </div>","null","html-keyboard-response","572","1879540","0.0-32.0-0.60","","","fixation_1","","","","","",""
"null","","null","image-keyboard-response","573","1880539","0.0-32.0-1.60","","","test","leftarrow","0","2","FALSE","FALSE",""
"null","<div style=""font-size:60px;""> </div>","null","html-keyboard-response","574","1881234","0.0-32.0-2.60","","","fixation_2","","","","","",""
"null","img_4.bmp","null","image-keyboard-response","575","1882235","0.0-32.0-3.60","","","img_on","","","","","",""
"null","<div style=""font-size:60px;""> </div>","null","html-keyboard-response","576","1882536","0.0-32.0-4.60","","","fixation_3","","","","","",""
"null","","null","html-keyboard-response","577","1882541","0.0-32.0-5.60","","","test","leftarrow","0","2","FALSE","FALSE",""
"null","<div style=""font-size:60px;""> </div>","null","html-keyboard-response","578","1882842","0.0-32.0-6.60","","","fixation_4","","","","","",""
"355.5","arrows.png","37","image-keyboard-response","579","1883198","0.0-32.0-7.60","","","test","leftarrow","0","2","FALSE","FALSE","true"
"null","<p style=""color: green; font-size:300%;"">correct: $2.50</p>","null","html-keyboard-response","580","1884539","0.0-32.0-8.60","","","","","","","","",""
"null","<div style=""font-size:60px;""> </div>","null","html-keyboard-response","581","1887489","0.0-32.0-0.61","","","fixation_1","","","","","",""
"null","","null","image-keyboard-response","582","1887494","0.0-32.0-1.61","","","test","rightarrow","1","2","FALSE","FALSE",""
"null","<div style=""font-size:60px;""> </div>","null","html-keyboard-response","583","1887794","0.0-32.0-2.61","","","fixation_2","","","","","",""
"null","img_2.bmp","null","image-keyboard-response","584","1888796","0.0-32.0-3.61","","","img_on","","","","","",""
"null","<div style=""font-size:60px;""> </div>","null","html-keyboard-response","585","1889097","0.0-32.0-4.61","","","fixation_3","","","","","",""
"null","","null","html-keyboard-response","586","1889102","0.0-32.0-5.61","","","test","rightarrow","1","2","FALSE","FALSE",""
"null","<div style=""font-size:60px;""> </div>","null","html-keyboard-response","587","1889403","0.0-32.0-6.61","","","fixation_4","","","","","",""
"299.30000001192093","arrows.png","40","image-keyboard-response","588","1889702","0.0-32.0-7.61","","","test","rightarrow","1","2","FALSE","FALSE","false"
"null","<p style=""color: red; font-size:300%;"">incorrect: $0</p>","null","html-keyboard-response","589","1891539","0.0-32.0-8.61","","","","","","","","",""
"null","<div style=""font-size:60px;""> </div>","null","html-keyboard-response","590","1894539","0.0-32.0-0.62","","","fixation_1","","","","","",""
"null","","null","image-keyboard-response","591","1895539","0.0-32.0-1.62","","","test","uparrow","1","2","FALSE","FALSE",""
"null","<div style=""font-size:60px;""> </div>","null","html-keyboard-response","592","1896465","0.0-32.0-2.62","","","fixation_2","","","","","",""
"null","img_1.bmp","null","image-keyboard-response","593","1897465","0.0-32.0-3.62","","","img_on","","","","","",""
"null","<div style=""font-size:60px;""> </div>","null","html-keyboard-response","594","1897766","0.0-32.0-4.62","","","fixation_3","","","","","",""
"null","","null","html-keyboard-response","595","1897771","0.0-32.0-5.62","","","test","uparrow","1","2","FALSE","FALSE",""
"null","<div style=""font-size:60px;""> </div>","null","html-keyboard-response","596","1898072","0.0-32.0-6.62","","","fixation_4","","","","","",""
"317.79999999701977","arrows.png","39","image-keyboard-response","597","1898391","0.0-32.0-7.62","","","test","uparrow","1","2","FALSE","FALSE","false"
"null","<p style=""color: red; font-size:300%;"">incorrect: $0</p>","null","html-keyboard-response","598","1900539","0.0-32.0-8.62","","","","","","","","",""
"null","<div style=""font-size:60px;""> </div>","null","html-keyboard-response","599","1902539","0.0-32.0-0.63","","","fixation_1","","","","","",""
"null","","null","image-keyboard-response","600","1903540","0.0-32.0-1.63","","","test","downarrow","0","2","FALSE","FALSE",""
"null","<div style=""font-size:60px;""> </div>","null","html-keyboard-response","601","1903848","0.0-32.0-2.63","","","fixation_2","","","","","",""
"null","img_3.bmp","null","image-keyboard-response","602","1905539","0.0-32.0-3.63","","","img_on","","","","","",""
"null","<div style=""font-size:60px;""> </div>","null","html-keyboard-response","603","1906540","0.0-32.0-4.63","","","fixation_3","","","","","",""
"null","","null","html-keyboard-response","604","1907539","0.0-32.0-5.63","","","test","downarrow","0","2","FALSE","FALSE",""
"null","<div style=""font-size:60px;""> </div>","null","html-keyboard-response","605","1908539","0.0-32.0-6.63","","","fixation_4","","","","","",""
"1340.199999988079","arrows.png","39","image-keyboard-response","606","1909879","0.0-32.0-7.63","","","test","downarrow","0","2","FALSE","FALSE","false"
"null","<p style=""color: red; font-size:300%;"">incorrect: $0</p>","null","html-keyboard-response","607","1911539","0.0-32.0-8.63","","","","","","","","",""
"null","<div style=""font-size:60px;""> </div>","null","html-keyboard-response","608","1913540","0.0-32.0-0.64","","","fixation_1","","","","","",""
"null","switch_cue.png","null","image-keyboard-response","609","1915539","0.0-32.0-1.64","","","test","uparrow","0","1","TRUE","TRUE",""
"null","<div style=""font-size:60px;""> </div>","null","html-keyboard-response","610","1916539","0.0-32.0-2.64","","","fixation_2","","","","","",""
"null","img_4.bmp","null","image-keyboard-response","611","1918540","0.0-32.0-3.64","","","img_on","","","","","",""
"null","<div style=""font-size:60px;""> </div>","null","html-keyboard-response","612","1919539","0.0-32.0-4.64","","","fixation_3","","","","","",""
"null","<img src=""CC1.png"" width=200 height=200/>","null","html-keyboard-response","613","1921469","0.0-32.0-5.64","","","test","uparrow","0","1","TRUE","TRUE",""
"null","<div style=""font-size:60px;""> </div>","null","html-keyboard-response","614","1921770","0.0-32.0-6.64","","","fixation_4","","","","","",""
"460.40000000596046","arrows.png","38","image-keyboard-response","615","1922231","0.0-32.0-7.64","","","test","uparrow","0","1","TRUE","TRUE","true"
"null","<p style=""color: green; font-size:300%;"">correct: $2.50</p>","null","html-keyboard-response","616","1923483","0.0-32.0-8.64","","","","","","","","",""
"null","<div style=""font-size:60px;""> </div>","null","html-keyboard-response","617","1924535","0.0-32.0-0.65","","","fixation_1","","","","","",""
"null","","null","image-keyboard-response","618","1924540","0.0-32.0-1.65","","","test","downarrow","1","1","TRUE","FALSE",""
"null","<div style=""font-size:60px;""> </div>","null","html-keyboard-response","619","1924841","0.0-32.0-2.65","","","fixation_2","","","","","",""
"null","img_2.bmp","null","image-keyboard-response","620","1925842","0.0-32.0-3.65","","","img_on","","","","","",""
"null","<div style=""font-size:60px;""> </div>","null","html-keyboard-response","621","1926143","0.0-32.0-4.65","","","fixation_3","","","","","",""
"null","<img src=""CC1.png"" width=200 height=200/>","null","html-keyboard-response","622","1927145","0.0-32.0-5.65","","","test","downarrow","1","1","TRUE","FALSE",""
"null","<div style=""font-size:60px;""> </div>","null","html-keyboard-response","623","1927447","0.0-32.0-6.65","","","fixation_4","","","","","",""
"432.90000000596046","arrows.png","39","image-keyboard-response","624","1927880","0.0-32.0-7.65","","","test","downarrow","1","1","TRUE","FALSE","false"
"null","<p style=""color: red; font-size:300%;"">incorrect: $0</p>","null","html-keyboard-response","625","1929133","0.0-32.0-8.65","","","","","","","","",""
"null","<div style=""font-size:60px;""> </div>","null","html-keyboard-response","626","1931539","0.0-32.0-0.66","","","fixation_1","","","","","",""
"null","","null","image-keyboard-response","627","1932539","0.0-32.0-1.66","","","test","leftarrow","1","1","TRUE","FALSE",""
"null","<div style=""font-size:60px;""> </div>","null","html-keyboard-response","628","1933539","0.0-32.0-2.66","","","fixation_2","","","","","",""
"null","img_3.bmp","null","image-keyboard-response","629","1935539","0.0-32.0-3.66","","","img_on","","","","","",""
"null","<div style=""font-size:60px;""> </div>","null","html-keyboard-response","630","1936539","0.0-32.0-4.66","","","fixation_3","","","","","",""
"null","<img src=""CC1.png"" width=200 height=200/>","null","html-keyboard-response","631","1937541","0.0-32.0-5.66","","","test","leftarrow","1","1","TRUE","FALSE",""
"null","<div style=""font-size:60px;""> </div>","null","html-keyboard-response","632","1937842","0.0-32.0-6.66","","","fixation_4","","","","","",""
"341.3999999910593","arrows.png","40","image-keyboard-response","633","1938184","0.0-32.0-7.66","","","test","leftarrow","1","1","TRUE","FALSE","false"
"null","<p style=""color: red; font-size:300%;"">incorrect: $0</p>","null","html-keyboard-response","634","1939539","0.0-32.0-8.66","","","","","","","","",""
"null","<div style=""font-size:60px;""> </div>","null","html-keyboard-response","635","1942539","0.0-32.0-0.67","","","fixation_1","","","","","",""
"null","","null","image-keyboard-response","636","1943539","0.0-32.0-1.67","","","test","rightarrow","0","1","TRUE","FALSE",""
"null","<div style=""font-size:60px;""> </div>","null","html-keyboard-response","637","1944539","0.0-32.0-2.67","","","fixation_2","","","","","",""
"null","img_1.bmp","null","image-keyboard-response","638","1946540","0.0-32.0-3.67","","","img_on","","","","","",""
"null","<div style=""font-size:60px;""> </div>","null","html-keyboard-response","639","1947539","0.0-32.0-4.67","","","fixation_3","","","","","",""
"null","<img src=""CC1.png"" width=200 height=200/>","null","html-keyboard-response","640","1949552","0.0-32.0-5.67","","","test","rightarrow","0","1","TRUE","FALSE",""
"null","<div style=""font-size:60px;""> </div>","null","html-keyboard-response","641","1950539","0.0-32.0-6.67","","","fixation_4","","","","","",""
"3684.3999999910593","arrows.png","39","image-keyboard-response","642","1954224","0.0-32.0-7.67","","","test","rightarrow","0","1","TRUE","FALSE","true"
"null","<p style=""color: green; font-size:300%;"">correct: $2.50</p>","null","html-keyboard-response","643","1955539","0.0-32.0-8.67","","","","","","","","",""
"null","<div style=""font-size:60px;""> </div>","null","html-keyboard-response","644","1957539","0.0-32.0-0.68","","","fixation_1","","","","","",""
"null","","null","image-keyboard-response","645","1958539","0.0-32.0-1.68","","","test","uparrow","0","1","FALSE","FALSE",""
"null","<div style=""font-size:60px;""> </div>","null","html-keyboard-response","646","1959539","0.0-32.0-2.68","","","fixation_2","","","","","",""
"null","img_4.bmp","null","image-keyboard-response","647","1961539","0.0-32.0-3.68","","","img_on","","","","","",""
"null","<div style=""font-size:60px;""> </div>","null","html-keyboard-response","648","1962539","0.0-32.0-4.68","","","fixation_3","","","","","",""
"null","","null","html-keyboard-response","649","1963539","0.0-32.0-5.68","","","test","uparrow","0","1","FALSE","FALSE",""
"null","<div style=""font-size:60px;""> </div>","null","html-keyboard-response","650","1964539","0.0-32.0-6.68","","","fixation_4","","","","","",""
"1628.7999999970198","arrows.png","37","image-keyboard-response","651","1966169","0.0-32.0-7.68","","","test","uparrow","0","1","FALSE","FALSE","false"
"null","<p style=""color: red; font-size:300%;"">incorrect: $0</p>","null","html-keyboard-response","652","1967540","0.0-32.0-8.68","","","","","","","","",""
"null","<div style=""font-size:60px;""> </div>","null","html-keyboard-response","653","1970539","0.0-32.0-0.69","","","fixation_1","","","","","",""
"null","","null","image-keyboard-response","654","1971539","0.0-32.0-1.69","","","test","leftarrow","1","1","FALSE","FALSE",""
"null","<div style=""font-size:60px;""> </div>","null","html-keyboard-response","655","1972539","0.0-32.0-2.69","","","fixation_2","","","","","",""
"null","img_3.bmp","null","image-keyboard-response","656","1973541","0.0-32.0-3.69","","","img_on","","","","","",""
"null","<div style=""font-size:60px;""> </div>","null","html-keyboard-response","657","1973841","0.0-32.0-4.69","","","fixation_3","","","","","",""
"null","","null","html-keyboard-response","658","1973846","0.0-32.0-5.69","","","test","leftarrow","1","1","FALSE","FALSE",""
"null","<div style=""font-size:60px;""> </div>","null","html-keyboard-response","659","1974147","0.0-32.0-6.69","","","fixation_4","","","","","",""
"613.1000000089407","arrows.png","38","image-keyboard-response","660","1974761","0.0-32.0-7.69","","","test","leftarrow","1","1","FALSE","FALSE","false"
"null","<p style=""color: red; font-size:300%;"">incorrect: $0</p>","null","html-keyboard-response","661","1976539","0.0-32.0-8.69","","","","","","","","",""
"null","<div style=""font-size:60px;""> </div>","null","html-keyboard-response","662","1978539","0.0-32.0-0.70","","","fixation_1","","","","","",""
"null","","null","image-keyboard-response","663","1979540","0.0-32.0-1.70","","","test","rightarrow","0","1","FALSE","FALSE",""
"null","<div style=""font-size:60px;""> </div>","null","html-keyboard-response","664","1980539","0.0-32.0-2.70","","","fixation_2","","","","","",""
"null","img_1.bmp","null","image-keyboard-response","665","1982539","0.0-32.0-3.70","","","img_on","","","","","",""
"null","<div style=""font-size:60px;""> </div>","null","html-keyboard-response","666","1983539","0.0-32.0-4.70","","","fixation_3","","","","","",""
"null","","null","html-keyboard-response","667","1984539","0.0-32.0-5.70","","","test","rightarrow","0","1","FALSE","FALSE",""
"null","<div style=""font-size:60px;""> </div>","null","html-keyboard-response","668","1985539","0.0-32.0-6.70","","","fixation_4","","","","","",""
"5118.20000000298","arrows.png","37","image-keyboard-response","669","1990657","0.0-32.0-7.70","","","test","rightarrow","0","1","FALSE","FALSE","false"
"null","<p style=""color: red; font-size:300%;"">incorrect: $0</p>","null","html-keyboard-response","670","1992539","0.0-32.0-8.70","","","","","","","","",""
"null","<div style=""font-size:60px;""> </div>","null","html-keyboard-response","671","1995539","0.0-32.0-0.71","","","fixation_1","","","","","",""
"null","","null","image-keyboard-response","672","1996539","0.0-32.0-1.71","","","test","downarrow","1","1","FALSE","FALSE",""
"null","<div style=""font-size:60px;""> </div>","null","html-keyboard-response","673","1997539","0.0-32.0-2.71","","","fixation_2","","","","","",""
"null","img_2.bmp","null","image-keyboard-response","674","1999539","0.0-32.0-3.71","","","img_on","","","","","",""
"null","<div style=""font-size:60px;""> </div>","null","html-keyboard-response","675","2000545","0.0-32.0-4.71","","","fixation_3","","","","","",""
"null","","null","html-keyboard-response","676","2001512","0.0-32.0-5.71","","","test","downarrow","1","1","FALSE","FALSE",""
"null","<div style=""font-size:60px;""> </div>","null","html-keyboard-response","677","2001814","0.0-32.0-6.71","","","fixation_4","","","","","",""
"315.09999999403954","arrows.png","39","image-keyboard-response","678","2002130","0.0-32.0-7.71","","","test","downarrow","1","1","FALSE","FALSE","false"
"null","<p style=""color: red; font-size:300%;"">incorrect: $0</p>","null","html-keyboard-response","679","2003539","0.0-32.0-8.71","","","","","","","","",""
"null","<div style=""font-size:60px;""> </div>","null","html-keyboard-response","680","2004840","0.0-32.0-0.72","","","fixation_1","","","","","",""
"null","","null","image-keyboard-response","681","2004845","0.0-32.0-1.72","","","test","rightarrow","0","1","FALSE","FALSE",""
"null","<div style=""font-size:60px;""> </div>","null","html-keyboard-response","682","2005146","0.0-32.0-2.72","","","fixation_2","","","","","",""
"null","img_1.bmp","null","image-keyboard-response","683","2006147","0.0-32.0-3.72","","","img_on","","","","","",""
"null","<div style=""font-size:60px;""> </div>","null","html-keyboard-response","684","2006448","0.0-32.0-4.72","","","fixation_3","","","","","",""
"null","","null","html-keyboard-response","685","2006453","0.0-32.0-5.72","","","test","rightarrow","0","1","FALSE","FALSE",""
"null","<div style=""font-size:60px;""> </div>","null","html-keyboard-response","686","2006769","0.0-32.0-6.72","","","fixation_4","","","","","",""
"296","arrows.png","37","image-keyboard-response","687","2007066","0.0-32.0-7.72","","","test","rightarrow","0","1","FALSE","FALSE","false"
"null","<p style=""color: red; font-size:300%;"">incorrect: $0</p>","null","html-keyboard-response","688","2008539","0.0-32.0-8.72","","","","","","","","",""
"null","<div style=""font-size:60px;""> </div>","null","html-keyboard-response","689","2010002","0.0-32.0-0.73","","","fixation_1","","","","","",""
"null","","null","image-keyboard-response","690","2010007","0.0-32.0-1.73","","","test","leftarrow","1","1","FALSE","FALSE",""
