"rt","stimulus","key_press","trial_type","trial_index","time_elapsed","internal_node_id","responses","view_history","test_part","correct_response","outcome","context","cc","sc","correct"
"4450.799999952316","<p><b>Welcome to the Picture Learning Game!</b></p>
      <p>The game will take ~35 minutes to complete, and you can make up to $17.50.</p>
      <p>You must use a desktop or laptop computer computer (no mobile devices).</p>
      <p><em>Press any key to continue.</em></p>","13","html-keyboard-response","0","4462","0.0-0.0","","","","","","","","",""
"3956.5","","","survey-text","1","8422","0.0-1.0","{""aws"":""A2LT6KC1X51FVW""}","","","","","","","",""
"13371.700000047684","","","survey-text","2","21797","0.0-2.0","{""age"":""30"",""english"":""Y"",""handedness"":""L"",""desktop"":""Y""}","","","","","","","",""
"58075.39999997616","","","instructions","3","79873","0.0-3.0","","[{""page_index"":0,""viewing_time"":1034.2999999523163},{""page_index"":1,""viewing_time"":11478.899999976158},{""page_index"":2,""viewing_time"":4492.899999976158},{""page_index"":3,""viewing_time"":38415},{""page_index"":4,""viewing_time"":2654.100000023842}]","","","","","","",""
"null","sample1.bmp","null","image-keyboard-response","4","80875","0.0-4.0","","","","","","","","",""
"1500.8999999761581","arrows.png","38","image-keyboard-response","5","82678","0.0-5.0","","","","","","","","",""
"14840.700000047684","","","instructions","6","97519","0.0-6.0","","[{""page_index"":0,""viewing_time"":1493.6000000238419},{""page_index"":1,""viewing_time"":9925},{""page_index"":2,""viewing_time"":3422}]","","","","","","",""
"null","sample1.bmp","null","image-keyboard-response","7","98520","0.0-7.0","","","","","","","","",""
"null","<img src=""CC1.png"" width=200 height=200/>","null","html-keyboard-response","8","99823","0.0-8.0","","","","","","","","",""
"377.7999999523163","arrows.png","38","image-keyboard-response","9","100501","0.0-9.0","","","","","","","","",""
"5367.899999976158","","","instructions","10","105870","0.0-10.0","","[{""page_index"":0,""viewing_time"":857.6999999284744},{""page_index"":1,""viewing_time"":4510.100000023842}]","","","","","","",""
"null","sample1.bmp","null","image-keyboard-response","11","106871","0.0-11.0","","","","","","","","",""
"null","<img src=""CC2.png"" width=200 height=200/>","null","html-keyboard-response","12","108174","0.0-12.0","","","","","","","","",""
"282.6999999284744","arrows.png","39","image-keyboard-response","13","108758","0.0-13.0","","","","","","","","",""
"55717.09999990463","","","instructions","14","164476","0.0-14.0","","[{""page_index"":0,""viewing_time"":761.7999999523163},{""page_index"":1,""viewing_time"":6157.899999976158},{""page_index"":2,""viewing_time"":28428},{""page_index"":3,""viewing_time"":5853},{""page_index"":4,""viewing_time"":14516.100000023842}]","","","","","","",""
"null","sample1.bmp","null","image-keyboard-response","15","165477","0.0-15.0","","","","","","","","",""
"1515.6999999284744","arrows.png","39","image-keyboard-response","16","167294","0.0-16.0","","","","","","","","",""
"15723.100000023842","","","instructions","17","183017","0.0-17.0","","[{""page_index"":0,""viewing_time"":5221.799999952316},{""page_index"":1,""viewing_time"":6548.100000023842},{""page_index"":2,""viewing_time"":3953}]","","","","","","",""
"null","sample1.bmp","null","image-keyboard-response","18","184019","0.0-18.0","","","","","","","","",""
"2764.7999999523163","arrows.png","39","image-keyboard-response","19","187086","0.0-19.0","","","","","","","","",""
"null","<p style=""color: green; font-size:300%;"">correct</p>","null","html-keyboard-response","20","188087","0.0-20.0","","","","","","","","",""
"null","switch_cue.png","null","image-keyboard-response","21","189389","0.0-21.0","","","","","","","","",""
"null","sample1.bmp","null","image-keyboard-response","22","190692","0.0-22.0","","","","","","","","",""
"null","<img src=""CC2.png"" width=200 height=200/>","null","html-keyboard-response","23","191994","0.0-23.0","","","","","","","","",""
"463.2999999523163","arrows.png","39","image-keyboard-response","24","192759","0.0-24.0","","","","","","","","",""
"null","<p style=""color: green; font-size:300%;"">correct</p>","null","html-keyboard-response","25","193760","0.0-25.0","","","","","","","","",""
"null","switch_cue.png","null","image-keyboard-response","26","195061","0.0-26.0","","","","","","","","",""
"null","sample1.bmp","null","image-keyboard-response","27","196362","0.0-27.0","","","","","","","","",""
"null","<img src=""CC1.png"" width=200 height=200/>","null","html-keyboard-response","28","197663","0.0-28.0","","","","","","","","",""
"305.09999990463257","arrows.png","38","image-keyboard-response","29","198270","0.0-29.0","","","","","","","","",""
"null","<p style=""color: green; font-size:300%;"">correct</p>","null","html-keyboard-response","30","199271","0.0-30.0","","","","","","","","",""
"431875","","","instructions","31","631446","0.0-31.0","","[{""page_index"":0,""viewing_time"":17225.299999952316},{""page_index"":1,""viewing_time"":1563},{""page_index"":2,""viewing_time"":14284},{""page_index"":3,""viewing_time"":14710},{""page_index"":4,""viewing_time"":331364.89999997616},{""page_index"":5,""viewing_time"":17658.5},{""page_index"":6,""viewing_time"":29155.100000023842},{""page_index"":7,""viewing_time"":5913.899999976158}]","","","","","","",""
"null","<div style=""font-size:60px;""> </div>","null","html-keyboard-response","32","631749","0.0-32.0-0.0","","","fixation_1","","","","","",""
"null","","null","image-keyboard-response","33","631752","0.0-32.0-1.0","","","test","rightarrow","0","1","TRUE","FALSE",""
"null","<div style=""font-size:60px;""> </div>","null","html-keyboard-response","34","632053","0.0-32.0-2.0","","","fixation_2","","","","","",""
"null","img_1.bmp","null","image-keyboard-response","35","633055","0.0-32.0-3.0","","","img_on","","","","","",""
"null","<div style=""font-size:60px;""> </div>","null","html-keyboard-response","36","633361","0.0-32.0-4.0","","","fixation_3","","","","","",""
"null","<img src=""CC1.png"" width=200 height=200/>","null","html-keyboard-response","37","634370","0.0-32.0-5.0","","","test","rightarrow","0","1","TRUE","FALSE",""
"null","<div style=""font-size:60px;""> </div>","null","html-keyboard-response","38","634672","0.0-32.0-6.0","","","fixation_4","","","","","",""
"1079.0999999046326","arrows.png","40","image-keyboard-response","39","635751","0.0-32.0-7.0","","","test","rightarrow","0","1","TRUE","FALSE","false"
"null","<p style=""color: red; font-size:300%;"">incorrect: $0</p>","null","html-keyboard-response","40","637003","0.0-32.0-8.0","","","","","","","","",""
"null","<div style=""font-size:60px;""> </div>","null","html-keyboard-response","41","638068","0.0-32.0-0.1","","","fixation_1","","","","","",""
"null","","null","image-keyboard-response","42","638073","0.0-32.0-1.1","","","test","uparrow","0","1","TRUE","FALSE",""
"null","<div style=""font-size:60px;""> </div>","null","html-keyboard-response","43","638373","0.0-32.0-2.1","","","fixation_2","","","","","",""
"null","img_4.bmp","null","image-keyboard-response","44","639375","0.0-32.0-3.1","","","img_on","","","","","",""
"null","<div style=""font-size:60px;""> </div>","null","html-keyboard-response","45","639677","0.0-32.0-4.1","","","fixation_3","","","","","",""
"null","<img src=""CC1.png"" width=200 height=200/>","null","html-keyboard-response","46","640690","0.0-32.0-5.1","","","test","uparrow","0","1","TRUE","FALSE",""
"null","<div style=""font-size:60px;""> </div>","null","html-keyboard-response","47","640991","0.0-32.0-6.1","","","fixation_4","","","","","",""
"215.20000004768372","arrows.png","38","image-keyboard-response","48","641207","0.0-32.0-7.1","","","test","uparrow","0","1","TRUE","FALSE","true"
"null","<p style=""color: green; font-size:300%;"">correct: $2.50</p>","null","html-keyboard-response","49","642459","0.0-32.0-8.1","","","","","","","","",""
"null","<div style=""font-size:60px;""> </div>","null","html-keyboard-response","50","643261","0.0-32.0-0.2","","","fixation_1","","","","","",""
"null","","null","image-keyboard-response","51","643266","0.0-32.0-1.2","","","test","leftarrow","1","1","TRUE","FALSE",""
"null","<div style=""font-size:60px;""> </div>","null","html-keyboard-response","52","643567","0.0-32.0-2.2","","","fixation_2","","","","","",""
"null","img_3.bmp","null","image-keyboard-response","53","644569","0.0-32.0-3.2","","","img_on","","","","","",""
"null","<div style=""font-size:60px;""> </div>","null","html-keyboard-response","54","644870","0.0-32.0-4.2","","","fixation_3","","","","","",""
"null","<img src=""CC1.png"" width=200 height=200/>","null","html-keyboard-response","55","645871","0.0-32.0-5.2","","","test","leftarrow","1","1","TRUE","FALSE",""
"null","<div style=""font-size:60px;""> </div>","null","html-keyboard-response","56","646172","0.0-32.0-6.2","","","fixation_4","","","","","",""
"162.29999995231628","arrows.png","39","image-keyboard-response","57","646335","0.0-32.0-7.2","","","test","leftarrow","1","1","TRUE","FALSE","false"
"null","<p style=""color: red; font-size:300%;"">incorrect: $0</p>","null","html-keyboard-response","58","647587","0.0-32.0-8.2","","","","","","","","",""
"null","<div style=""font-size:60px;""> </div>","null","html-keyboard-response","59","648890","0.0-32.0-0.3","","","fixation_1","","","","","",""
"null","","null","image-keyboard-response","60","648895","0.0-32.0-1.3","","","test","downarrow","1","1","TRUE","FALSE",""
"null","<div style=""font-size:60px;""> </div>","null","html-keyboard-response","61","649196","0.0-32.0-2.3","","","fixation_2","","","","","",""
"null","img_2.bmp","null","image-keyboard-response","62","650197","0.0-32.0-3.3","","","img_on","","","","","",""
"null","<div style=""font-size:60px;""> </div>","null","html-keyboard-response","63","650499","0.0-32.0-4.3","","","fixation_3","","","","","",""
"null","<img src=""CC1.png"" width=200 height=200/>","null","html-keyboard-response","64","651501","0.0-32.0-5.3","","","test","downarrow","1","1","TRUE","FALSE",""
"null","<div style=""font-size:60px;""> </div>","null","html-keyboard-response","65","651802","0.0-32.0-6.3","","","fixation_4","","","","","",""
"300.7000000476837","arrows.png","40","image-keyboard-response","66","652103","0.0-32.0-7.3","","","test","downarrow","1","1","TRUE","FALSE","true"
"null","<p style=""color: green; font-size:300%;"">correct: $7.50</p>","null","html-keyboard-response","67","653355","0.0-32.0-8.3","","","","","","","","",""
"null","<div style=""font-size:60px;""> </div>","null","html-keyboard-response","68","654407","0.0-32.0-0.4","","","fixation_1","","","","","",""
"null","","null","image-keyboard-response","69","654413","0.0-32.0-1.4","","","test","uparrow","0","1","FALSE","FALSE",""
"null","<div style=""font-size:60px;""> </div>","null","html-keyboard-response","70","654713","0.0-32.0-2.4","","","fixation_2","","","","","",""
"null","img_4.bmp","null","image-keyboard-response","71","655714","0.0-32.0-3.4","","","img_on","","","","","",""
"null","<div style=""font-size:60px;""> </div>","null","html-keyboard-response","72","656015","0.0-32.0-4.4","","","fixation_3","","","","","",""
"null","","null","html-keyboard-response","73","656021","0.0-32.0-5.4","","","test","uparrow","0","1","FALSE","FALSE",""
"null","<div style=""font-size:60px;""> </div>","null","html-keyboard-response","74","656322","0.0-32.0-6.4","","","fixation_4","","","","","",""
"1540.6000000238419","arrows.png","38","image-keyboard-response","75","657863","0.0-32.0-7.4","","","test","uparrow","0","1","FALSE","FALSE","true"
"null","<p style=""color: green; font-size:300%;"">correct: $2.50</p>","null","html-keyboard-response","76","659115","0.0-32.0-8.4","","","","","","","","",""
"null","<div style=""font-size:60px;""> </div>","null","html-keyboard-response","77","660417","0.0-32.0-0.5","","","fixation_1","","","","","",""
"null","","null","image-keyboard-response","78","660422","0.0-32.0-1.5","","","test","leftarrow","1","1","FALSE","FALSE",""
"null","<div style=""font-size:60px;""> </div>","null","html-keyboard-response","79","660724","0.0-32.0-2.5","","","fixation_2","","","","","",""
"null","img_3.bmp","null","image-keyboard-response","80","661726","0.0-32.0-3.5","","","img_on","","","","","",""
"null","<div style=""font-size:60px;""> </div>","null","html-keyboard-response","81","662028","0.0-32.0-4.5","","","fixation_3","","","","","",""
"null","","null","html-keyboard-response","82","662033","0.0-32.0-5.5","","","test","leftarrow","1","1","FALSE","FALSE",""
"null","<div style=""font-size:60px;""> </div>","null","html-keyboard-response","83","662334","0.0-32.0-6.5","","","fixation_4","","","","","",""
"1728.3000000715256","arrows.png","37","image-keyboard-response","84","664063","0.0-32.0-7.5","","","test","leftarrow","1","1","FALSE","FALSE","true"
"null","<p style=""color: green; font-size:300%;"">correct: $7.50</p>","null","html-keyboard-response","85","665315","0.0-32.0-8.5","","","","","","","","",""
"null","<div style=""font-size:60px;""> </div>","null","html-keyboard-response","86","665866","0.0-32.0-0.6","","","fixation_1","","","","","",""
"null","","null","image-keyboard-response","87","665871","0.0-32.0-1.6","","","test","rightarrow","0","1","FALSE","FALSE",""
"null","<div style=""font-size:60px;""> </div>","null","html-keyboard-response","88","666178","0.0-32.0-2.6","","","fixation_2","","","","","",""
"null","img_1.bmp","null","image-keyboard-response","89","667179","0.0-32.0-3.6","","","img_on","","","","","",""
"null","<div style=""font-size:60px;""> </div>","null","html-keyboard-response","90","667481","0.0-32.0-4.6","","","fixation_3","","","","","",""
"null","","null","html-keyboard-response","91","667486","0.0-32.0-5.6","","","test","rightarrow","0","1","FALSE","FALSE",""
"null","<div style=""font-size:60px;""> </div>","null","html-keyboard-response","92","667787","0.0-32.0-6.6","","","fixation_4","","","","","",""
"643.3000000715256","arrows.png","39","image-keyboard-response","93","668431","0.0-32.0-7.6","","","test","rightarrow","0","1","FALSE","FALSE","true"
"null","<p style=""color: green; font-size:300%;"">correct: $2.50</p>","null","html-keyboard-response","94","669683","0.0-32.0-8.6","","","","","","","","",""
"null","<div style=""font-size:60px;""> </div>","null","html-keyboard-response","95","670986","0.0-32.0-0.7","","","fixation_1","","","","","",""
"null","","null","image-keyboard-response","96","670991","0.0-32.0-1.7","","","test","downarrow","1","1","FALSE","FALSE",""
"null","<div style=""font-size:60px;""> </div>","null","html-keyboard-response","97","671291","0.0-32.0-2.7","","","fixation_2","","","","","",""
"null","img_2.bmp","null","image-keyboard-response","98","672292","0.0-32.0-3.7","","","img_on","","","","","",""
"null","<div style=""font-size:60px;""> </div>","null","html-keyboard-response","99","672592","0.0-32.0-4.7","","","fixation_3","","","","","",""
"null","","null","html-keyboard-response","100","672598","0.0-32.0-5.7","","","test","downarrow","1","1","FALSE","FALSE",""
"null","<div style=""font-size:60px;""> </div>","null","html-keyboard-response","101","672899","0.0-32.0-6.7","","","fixation_4","","","","","",""
"1771.1000000238419","arrows.png","40","image-keyboard-response","102","674671","0.0-32.0-7.7","","","test","downarrow","1","1","FALSE","FALSE","true"
"null","<p style=""color: green; font-size:300%;"">correct: $7.50</p>","null","html-keyboard-response","103","675923","0.0-32.0-8.7","","","","","","","","",""
"null","<div style=""font-size:60px;""> </div>","null","html-keyboard-response","104","677476","0.0-32.0-0.8","","","fixation_1","","","","","",""
"null","","null","image-keyboard-response","105","677481","0.0-32.0-1.8","","","test","leftarrow","1","1","FALSE","FALSE",""
"null","<div style=""font-size:60px;""> </div>","null","html-keyboard-response","106","677782","0.0-32.0-2.8","","","fixation_2","","","","","",""
"null","img_3.bmp","null","image-keyboard-response","107","678783","0.0-32.0-3.8","","","img_on","","","","","",""
"null","<div style=""font-size:60px;""> </div>","null","html-keyboard-response","108","679084","0.0-32.0-4.8","","","fixation_3","","","","","",""
"null","","null","html-keyboard-response","109","679089","0.0-32.0-5.8","","","test","leftarrow","1","1","FALSE","FALSE",""
"null","<div style=""font-size:60px;""> </div>","null","html-keyboard-response","110","679392","0.0-32.0-6.8","","","fixation_4","","","","","",""
"814.5","arrows.png","37","image-keyboard-response","111","680207","0.0-32.0-7.8","","","test","leftarrow","1","1","FALSE","FALSE","true"
"null","<p style=""color: green; font-size:300%;"">correct: $7.50</p>","null","html-keyboard-response","112","681473","0.0-32.0-8.8","","","","","","","","",""
"null","<div style=""font-size:60px;""> </div>","null","html-keyboard-response","113","682526","0.0-32.0-0.9","","","fixation_1","","","","","",""
"null","","null","image-keyboard-response","114","682531","0.0-32.0-1.9","","","test","uparrow","0","1","FALSE","FALSE",""
"null","<div style=""font-size:60px;""> </div>","null","html-keyboard-response","115","682832","0.0-32.0-2.9","","","fixation_2","","","","","",""
"null","img_4.bmp","null","image-keyboard-response","116","683833","0.0-32.0-3.9","","","img_on","","","","","",""
"null","<div style=""font-size:60px;""> </div>","null","html-keyboard-response","117","684134","0.0-32.0-4.9","","","fixation_3","","","","","",""
"null","","null","html-keyboard-response","118","684139","0.0-32.0-5.9","","","test","uparrow","0","1","FALSE","FALSE",""
"null","<div style=""font-size:60px;""> </div>","null","html-keyboard-response","119","684440","0.0-32.0-6.9","","","fixation_4","","","","","",""
"654.1999999284744","arrows.png","38","image-keyboard-response","120","685095","0.0-32.0-7.9","","","test","uparrow","0","1","FALSE","FALSE","true"
"null","<p style=""color: green; font-size:300%;"">correct: $2.50</p>","null","html-keyboard-response","121","686347","0.0-32.0-8.9","","","","","","","","",""
"null","<div style=""font-size:60px;""> </div>","null","html-keyboard-response","122","687655","0.0-32.0-0.10","","","fixation_1","","","","","",""
"null","","null","image-keyboard-response","123","687660","0.0-32.0-1.10","","","test","downarrow","1","1","FALSE","FALSE",""
"null","<div style=""font-size:60px;""> </div>","null","html-keyboard-response","124","687961","0.0-32.0-2.10","","","fixation_2","","","","","",""
"null","img_2.bmp","null","image-keyboard-response","125","688962","0.0-32.0-3.10","","","img_on","","","","","",""
"null","<div style=""font-size:60px;""> </div>","null","html-keyboard-response","126","689264","0.0-32.0-4.10","","","fixation_3","","","","","",""
"null","","null","html-keyboard-response","127","689270","0.0-32.0-5.10","","","test","downarrow","1","1","FALSE","FALSE",""
"null","<div style=""font-size:60px;""> </div>","null","html-keyboard-response","128","689571","0.0-32.0-6.10","","","fixation_4","","","","","",""
"619.3999999761581","arrows.png","40","image-keyboard-response","129","690191","0.0-32.0-7.10","","","test","downarrow","1","1","FALSE","FALSE","true"
"null","<p style=""color: green; font-size:300%;"">correct: $7.50</p>","null","html-keyboard-response","130","691443","0.0-32.0-8.10","","","","","","","","",""
"null","<div style=""font-size:60px;""> </div>","null","html-keyboard-response","131","692745","0.0-32.0-0.11","","","fixation_1","","","","","",""
"null","","null","image-keyboard-response","132","692750","0.0-32.0-1.11","","","test","rightarrow","0","1","FALSE","FALSE",""
"null","<div style=""font-size:60px;""> </div>","null","html-keyboard-response","133","693050","0.0-32.0-2.11","","","fixation_2","","","","","",""
"null","img_1.bmp","null","image-keyboard-response","134","694052","0.0-32.0-3.11","","","img_on","","","","","",""
"null","<div style=""font-size:60px;""> </div>","null","html-keyboard-response","135","694353","0.0-32.0-4.11","","","fixation_3","","","","","",""
"null","","null","html-keyboard-response","136","694358","0.0-32.0-5.11","","","test","rightarrow","0","1","FALSE","FALSE",""
"null","<div style=""font-size:60px;""> </div>","null","html-keyboard-response","137","694659","0.0-32.0-6.11","","","fixation_4","","","","","",""
"571.5","arrows.png","39","image-keyboard-response","138","695231","0.0-32.0-7.11","","","test","rightarrow","0","1","FALSE","FALSE","true"
"null","<p style=""color: green; font-size:300%;"">correct: $2.50</p>","null","html-keyboard-response","139","696483","0.0-32.0-8.11","","","","","","","","",""
"null","<div style=""font-size:60px;""> </div>","null","html-keyboard-response","140","697536","0.0-32.0-0.12","","","fixation_1","","","","","",""
"null","","null","image-keyboard-response","141","697542","0.0-32.0-1.12","","","test","downarrow","1","1","FALSE","FALSE",""
"null","<div style=""font-size:60px;""> </div>","null","html-keyboard-response","142","697844","0.0-32.0-2.12","","","fixation_2","","","","","",""
"null","img_2.bmp","null","image-keyboard-response","143","698846","0.0-32.0-3.12","","","img_on","","","","","",""
"null","<div style=""font-size:60px;""> </div>","null","html-keyboard-response","144","699148","0.0-32.0-4.12","","","fixation_3","","","","","",""
"null","","null","html-keyboard-response","145","699153","0.0-32.0-5.12","","","test","downarrow","1","1","FALSE","FALSE",""
"null","<div style=""font-size:60px;""> </div>","null","html-keyboard-response","146","699454","0.0-32.0-6.12","","","fixation_4","","","","","",""
"384.60000002384186","arrows.png","40","image-keyboard-response","147","699839","0.0-32.0-7.12","","","test","downarrow","1","1","FALSE","FALSE","true"
"null","<p style=""color: green; font-size:300%;"">correct: $7.50</p>","null","html-keyboard-response","148","701091","0.0-32.0-8.12","","","","","","","","",""
"null","<div style=""font-size:60px;""> </div>","null","html-keyboard-response","149","701894","0.0-32.0-0.13","","","fixation_1","","","","","",""
"null","","null","image-keyboard-response","150","701900","0.0-32.0-1.13","","","test","leftarrow","1","1","FALSE","FALSE",""
"null","<div style=""font-size:60px;""> </div>","null","html-keyboard-response","151","702201","0.0-32.0-2.13","","","fixation_2","","","","","",""
"null","img_3.bmp","null","image-keyboard-response","152","703203","0.0-32.0-3.13","","","img_on","","","","","",""
"null","<div style=""font-size:60px;""> </div>","null","html-keyboard-response","153","703504","0.0-32.0-4.13","","","fixation_3","","","","","",""
"null","","null","html-keyboard-response","154","703510","0.0-32.0-5.13","","","test","leftarrow","1","1","FALSE","FALSE",""
"null","<div style=""font-size:60px;""> </div>","null","html-keyboard-response","155","703811","0.0-32.0-6.13","","","fixation_4","","","","","",""
"707.5","arrows.png","37","image-keyboard-response","156","704519","0.0-32.0-7.13","","","test","leftarrow","1","1","FALSE","FALSE","true"
"null","<p style=""color: green; font-size:300%;"">correct: $7.50</p>","null","html-keyboard-response","157","705772","0.0-32.0-8.13","","","","","","","","",""
"null","<div style=""font-size:60px;""> </div>","null","html-keyboard-response","158","706323","0.0-32.0-0.14","","","fixation_1","","","","","",""
"null","","null","image-keyboard-response","159","706328","0.0-32.0-1.14","","","test","rightarrow","0","1","FALSE","FALSE",""
"null","<div style=""font-size:60px;""> </div>","null","html-keyboard-response","160","706629","0.0-32.0-2.14","","","fixation_2","","","","","",""
"null","img_1.bmp","null","image-keyboard-response","161","707630","0.0-32.0-3.14","","","img_on","","","","","",""
"null","<div style=""font-size:60px;""> </div>","null","html-keyboard-response","162","707931","0.0-32.0-4.14","","","fixation_3","","","","","",""
"null","","null","html-keyboard-response","163","707935","0.0-32.0-5.14","","","test","rightarrow","0","1","FALSE","FALSE",""
"null","<div style=""font-size:60px;""> </div>","null","html-keyboard-response","164","708237","0.0-32.0-6.14","","","fixation_4","","","","","",""
"481.60000002384186","arrows.png","39","image-keyboard-response","165","708719","0.0-32.0-7.14","","","test","rightarrow","0","1","FALSE","FALSE","true"
"null","<p style=""color: green; font-size:300%;"">correct: $2.50</p>","null","html-keyboard-response","166","709971","0.0-32.0-8.14","","","","","","","","",""
"null","<div style=""font-size:60px;""> </div>","null","html-keyboard-response","167","710523","0.0-32.0-0.15","","","fixation_1","","","","","",""
"null","","null","image-keyboard-response","168","710528","0.0-32.0-1.15","","","test","uparrow","0","1","FALSE","FALSE",""
"null","<div style=""font-size:60px;""> </div>","null","html-keyboard-response","169","710829","0.0-32.0-2.15","","","fixation_2","","","","","",""
"null","img_4.bmp","null","image-keyboard-response","170","711830","0.0-32.0-3.15","","","img_on","","","","","",""
"null","<div style=""font-size:60px;""> </div>","null","html-keyboard-response","171","712131","0.0-32.0-4.15","","","fixation_3","","","","","",""
"null","","null","html-keyboard-response","172","712136","0.0-32.0-5.15","","","test","uparrow","0","1","FALSE","FALSE",""
"null","<div style=""font-size:60px;""> </div>","null","html-keyboard-response","173","712438","0.0-32.0-6.15","","","fixation_4","","","","","",""
"496.7000000476837","arrows.png","38","image-keyboard-response","174","712935","0.0-32.0-7.15","","","test","uparrow","0","1","FALSE","FALSE","true"
"null","<p style=""color: green; font-size:300%;"">correct: $2.50</p>","null","html-keyboard-response","175","714186","0.0-32.0-8.15","","","","","","","","",""
"null","<div style=""font-size:60px;""> </div>","null","html-keyboard-response","176","715503","0.0-32.0-0.16","","","fixation_1","","","","","",""
"null","","null","image-keyboard-response","177","715508","0.0-32.0-1.16","","","test","leftarrow","1","1","FALSE","FALSE",""
"null","<div style=""font-size:60px;""> </div>","null","html-keyboard-response","178","715809","0.0-32.0-2.16","","","fixation_2","","","","","",""
"null","img_3.bmp","null","image-keyboard-response","179","716811","0.0-32.0-3.16","","","img_on","","","","","",""
"null","<div style=""font-size:60px;""> </div>","null","html-keyboard-response","180","717111","0.0-32.0-4.16","","","fixation_3","","","","","",""
"null","","null","html-keyboard-response","181","717116","0.0-32.0-5.16","","","test","leftarrow","1","1","FALSE","FALSE",""
"null","<div style=""font-size:60px;""> </div>","null","html-keyboard-response","182","717418","0.0-32.0-6.16","","","fixation_4","","","","","",""
"196.29999995231628","arrows.png","37","image-keyboard-response","183","717615","0.0-32.0-7.16","","","test","leftarrow","1","1","FALSE","FALSE","true"
"null","<p style=""color: green; font-size:300%;"">correct: $7.50</p>","null","html-keyboard-response","184","718866","0.0-32.0-8.16","","","","","","","","",""
"null","<div style=""font-size:60px;""> </div>","null","html-keyboard-response","185","719419","0.0-32.0-0.17","","","fixation_1","","","","","",""
"null","","null","image-keyboard-response","186","719424","0.0-32.0-1.17","","","test","uparrow","0","1","FALSE","FALSE",""
"null","<div style=""font-size:60px;""> </div>","null","html-keyboard-response","187","719725","0.0-32.0-2.17","","","fixation_2","","","","","",""
"null","img_4.bmp","null","image-keyboard-response","188","720727","0.0-32.0-3.17","","","img_on","","","","","",""
"null","<div style=""font-size:60px;""> </div>","null","html-keyboard-response","189","721028","0.0-32.0-4.17","","","fixation_3","","","","","",""
"null","","null","html-keyboard-response","190","721033","0.0-32.0-5.17","","","test","uparrow","0","1","FALSE","FALSE",""
"null","<div style=""font-size:60px;""> </div>","null","html-keyboard-response","191","721334","0.0-32.0-6.17","","","fixation_4","","","","","",""
"400.3000000715256","arrows.png","38","image-keyboard-response","192","721735","0.0-32.0-7.17","","","test","uparrow","0","1","FALSE","FALSE","true"
"null","<p style=""color: green; font-size:300%;"">correct: $2.50</p>","null","html-keyboard-response","193","722986","0.0-32.0-8.17","","","","","","","","",""
"null","<div style=""font-size:60px;""> </div>","null","html-keyboard-response","194","724048","0.0-32.0-0.18","","","fixation_1","","","","","",""
"null","","null","image-keyboard-response","195","724053","0.0-32.0-1.18","","","test","downarrow","1","1","FALSE","FALSE",""
"null","<div style=""font-size:60px;""> </div>","null","html-keyboard-response","196","724354","0.0-32.0-2.18","","","fixation_2","","","","","",""
"null","img_2.bmp","null","image-keyboard-response","197","725354","0.0-32.0-3.18","","","img_on","","","","","",""
"null","<div style=""font-size:60px;""> </div>","null","html-keyboard-response","198","725656","0.0-32.0-4.18","","","fixation_3","","","","","",""
"null","","null","html-keyboard-response","199","725661","0.0-32.0-5.18","","","test","downarrow","1","1","FALSE","FALSE",""
"null","<div style=""font-size:60px;""> </div>","null","html-keyboard-response","200","725961","0.0-32.0-6.18","","","fixation_4","","","","","",""
"397","arrows.png","40","image-keyboard-response","201","726359","0.0-32.0-7.18","","","test","downarrow","1","1","FALSE","FALSE","true"
"null","<p style=""color: green; font-size:300%;"">correct: $7.50</p>","null","html-keyboard-response","202","727611","0.0-32.0-8.18","","","","","","","","",""
"null","<div style=""font-size:60px;""> </div>","null","html-keyboard-response","203","729163","0.0-32.0-0.19","","","fixation_1","","","","","",""
"null","switch_cue.png","null","image-keyboard-response","204","730165","0.0-32.0-1.19","","","test","rightarrow","0","1","TRUE","TRUE",""
"null","<div style=""font-size:60px;""> </div>","null","html-keyboard-response","205","730465","0.0-32.0-2.19","","","fixation_2","","","","","",""
"null","img_1.bmp","null","image-keyboard-response","206","731467","0.0-32.0-3.19","","","img_on","","","","","",""
"null","<div style=""font-size:60px;""> </div>","null","html-keyboard-response","207","731768","0.0-32.0-4.19","","","fixation_3","","","","","",""
"null","<img src=""CC1.png"" width=200 height=200/>","null","html-keyboard-response","208","732768","0.0-32.0-5.19","","","test","rightarrow","0","1","TRUE","TRUE",""
"null","<div style=""font-size:60px;""> </div>","null","html-keyboard-response","209","733070","0.0-32.0-6.19","","","fixation_4","","","","","",""
"272.2999999523163","arrows.png","39","image-keyboard-response","210","733343","0.0-32.0-7.19","","","test","rightarrow","0","1","TRUE","TRUE","true"
"null","<p style=""color: green; font-size:300%;"">correct: $2.50</p>","null","html-keyboard-response","211","734595","0.0-32.0-8.19","","","","","","","","",""
"null","<div style=""font-size:60px;""> </div>","null","html-keyboard-response","212","735898","0.0-32.0-0.20","","","fixation_1","","","","","",""
"null","switch_cue.png","null","image-keyboard-response","213","736900","0.0-32.0-1.20","","","test","uparrow","1","2","TRUE","TRUE",""
"null","<div style=""font-size:60px;""> </div>","null","html-keyboard-response","214","737202","0.0-32.0-2.20","","","fixation_2","","","","","",""
"null","img_1.bmp","null","image-keyboard-response","215","738203","0.0-32.0-3.20","","","img_on","","","","","",""
"null","<div style=""font-size:60px;""> </div>","null","html-keyboard-response","216","738505","0.0-32.0-4.20","","","fixation_3","","","","","",""
"null","<img src=""CC2.png"" width=200 height=200/>","null","html-keyboard-response","217","739506","0.0-32.0-5.20","","","test","uparrow","1","2","TRUE","TRUE",""
"null","<div style=""font-size:60px;""> </div>","null","html-keyboard-response","218","739806","0.0-32.0-6.20","","","fixation_4","","","","","",""
"208","arrows.png","40","image-keyboard-response","219","740015","0.0-32.0-7.20","","","test","uparrow","1","2","TRUE","TRUE","false"
"null","<p style=""color: red; font-size:300%;"">incorrect: $0</p>","null","html-keyboard-response","220","741267","0.0-32.0-8.20","","","","","","","","",""
"null","<div style=""font-size:60px;""> </div>","null","html-keyboard-response","221","742819","0.0-32.0-0.21","","","fixation_1","","","","","",""
"null","","null","image-keyboard-response","222","742825","0.0-32.0-1.21","","","test","rightarrow","1","2","TRUE","FALSE",""
"null","<div style=""font-size:60px;""> </div>","null","html-keyboard-response","223","743126","0.0-32.0-2.21","","","fixation_2","","","","","",""
"null","img_2.bmp","null","image-keyboard-response","224","744127","0.0-32.0-3.21","","","img_on","","","","","",""
"null","<div style=""font-size:60px;""> </div>","null","html-keyboard-response","225","744428","0.0-32.0-4.21","","","fixation_3","","","","","",""
"null","<img src=""CC2.png"" width=200 height=200/>","null","html-keyboard-response","226","745429","0.0-32.0-5.21","","","test","rightarrow","1","2","TRUE","FALSE",""
"null","<div style=""font-size:60px;""> </div>","null","html-keyboard-response","227","745731","0.0-32.0-6.21","","","fixation_4","","","","","",""
"331.39999997615814","arrows.png","37","image-keyboard-response","228","746063","0.0-32.0-7.21","","","test","rightarrow","1","2","TRUE","FALSE","false"
"null","<p style=""color: red; font-size:300%;"">incorrect: $0</p>","null","html-keyboard-response","229","747316","0.0-32.0-8.21","","","","","","","","",""
"null","<div style=""font-size:60px;""> </div>","null","html-keyboard-response","230","748621","0.0-32.0-0.22","","","fixation_1","","","","","",""
"null","","null","image-keyboard-response","231","748627","0.0-32.0-1.22","","","test","leftarrow","0","2","TRUE","FALSE",""
"null","<div style=""font-size:60px;""> </div>","null","html-keyboard-response","232","748928","0.0-32.0-2.22","","","fixation_2","","","","","",""
"null","img_4.bmp","null","image-keyboard-response","233","749938","0.0-32.0-3.22","","","img_on","","","","","",""
"null","<div style=""font-size:60px;""> </div>","null","html-keyboard-response","234","750240","0.0-32.0-4.22","","","fixation_3","","","","","",""
"null","<img src=""CC2.png"" width=200 height=200/>","null","html-keyboard-response","235","751241","0.0-32.0-5.22","","","test","leftarrow","0","2","TRUE","FALSE",""
"null","<div style=""font-size:60px;""> </div>","null","html-keyboard-response","236","751542","0.0-32.0-6.22","","","fixation_4","","","","","",""
"456.5","arrows.png","37","image-keyboard-response","237","751999","0.0-32.0-7.22","","","test","leftarrow","0","2","TRUE","FALSE","true"
"null","<p style=""color: green; font-size:300%;"">correct: $2.50</p>","null","html-keyboard-response","238","753250","0.0-32.0-8.22","","","","","","","","",""
"null","<div style=""font-size:60px;""> </div>","null","html-keyboard-response","239","754054","0.0-32.0-0.23","","","fixation_1","","","","","",""
"null","","null","image-keyboard-response","240","754060","0.0-32.0-1.23","","","test","downarrow","0","2","TRUE","FALSE",""
"null","<div style=""font-size:60px;""> </div>","null","html-keyboard-response","241","754360","0.0-32.0-2.23","","","fixation_2","","","","","",""
"null","img_3.bmp","null","image-keyboard-response","242","755361","0.0-32.0-3.23","","","img_on","","","","","",""
"null","<div style=""font-size:60px;""> </div>","null","html-keyboard-response","243","755662","0.0-32.0-4.23","","","fixation_3","","","","","",""
"null","<img src=""CC2.png"" width=200 height=200/>","null","html-keyboard-response","244","756663","0.0-32.0-5.23","","","test","downarrow","0","2","TRUE","FALSE",""
"null","<div style=""font-size:60px;""> </div>","null","html-keyboard-response","245","756964","0.0-32.0-6.23","","","fixation_4","","","","","",""
"290.5","arrows.png","40","image-keyboard-response","246","757255","0.0-32.0-7.23","","","test","downarrow","0","2","TRUE","FALSE","true"
"null","<p style=""color: green; font-size:300%;"">correct: $2.50</p>","null","html-keyboard-response","247","758508","0.0-32.0-8.23","","","","","","","","",""
"null","<div style=""font-size:60px;""> </div>","null","html-keyboard-response","248","759309","0.0-32.0-0.24","","","fixation_1","","","","","",""
"null","","null","image-keyboard-response","249","759315","0.0-32.0-1.24","","","test","uparrow","1","2","FALSE","FALSE",""
"null","<div style=""font-size:60px;""> </div>","null","html-keyboard-response","250","759615","0.0-32.0-2.24","","","fixation_2","","","","","",""
"null","img_1.bmp","null","image-keyboard-response","251","760616","0.0-32.0-3.24","","","img_on","","","","","",""
"null","<div style=""font-size:60px;""> </div>","null","html-keyboard-response","252","760920","0.0-32.0-4.24","","","fixation_3","","","","","",""
"null","","null","html-keyboard-response","253","760925","0.0-32.0-5.24","","","test","uparrow","1","2","FALSE","FALSE",""
"null","<div style=""font-size:60px;""> </div>","null","html-keyboard-response","254","761227","0.0-32.0-6.24","","","fixation_4","","","","","",""
"2459.5","arrows.png","39","image-keyboard-response","255","763687","0.0-32.0-7.24","","","test","uparrow","1","2","FALSE","FALSE","false"
"null","<p style=""color: red; font-size:300%;"">incorrect: $0</p>","null","html-keyboard-response","256","764938","0.0-32.0-8.24","","","","","","","","",""
"null","<div style=""font-size:60px;""> </div>","null","html-keyboard-response","257","766241","0.0-32.0-0.25","","","fixation_1","","","","","",""
"null","","null","image-keyboard-response","258","766246","0.0-32.0-1.25","","","test","downarrow","0","2","FALSE","FALSE",""
"null","<div style=""font-size:60px;""> </div>","null","html-keyboard-response","259","766547","0.0-32.0-2.25","","","fixation_2","","","","","",""
"null","img_3.bmp","null","image-keyboard-response","260","767549","0.0-32.0-3.25","","","img_on","","","","","",""
"null","<div style=""font-size:60px;""> </div>","null","html-keyboard-response","261","767849","0.0-32.0-4.25","","","fixation_3","","","","","",""
"null","","null","html-keyboard-response","262","767854","0.0-32.0-5.25","","","test","downarrow","0","2","FALSE","FALSE",""
"null","<div style=""font-size:60px;""> </div>","null","html-keyboard-response","263","768156","0.0-32.0-6.25","","","fixation_4","","","","","",""
"1075.8000000715256","arrows.png","40","image-keyboard-response","264","769232","0.0-32.0-7.25","","","test","downarrow","0","2","FALSE","FALSE","true"
"null","<p style=""color: green; font-size:300%;"">correct: $2.50</p>","null","html-keyboard-response","265","770484","0.0-32.0-8.25","","","","","","","","",""
"null","<div style=""font-size:60px;""> </div>","null","html-keyboard-response","266","771288","0.0-32.0-0.26","","","fixation_1","","","","","",""
"null","","null","image-keyboard-response","267","771294","0.0-32.0-1.26","","","test","rightarrow","1","2","FALSE","FALSE",""
"null","<div style=""font-size:60px;""> </div>","null","html-keyboard-response","268","771595","0.0-32.0-2.26","","","fixation_2","","","","","",""
"null","img_2.bmp","null","image-keyboard-response","269","772595","0.0-32.0-3.26","","","img_on","","","","","",""
"null","<div style=""font-size:60px;""> </div>","null","html-keyboard-response","270","772897","0.0-32.0-4.26","","","fixation_3","","","","","",""
"null","","null","html-keyboard-response","271","772903","0.0-32.0-5.26","","","test","rightarrow","1","2","FALSE","FALSE",""
"null","<div style=""font-size:60px;""> </div>","null","html-keyboard-response","272","773203","0.0-32.0-6.26","","","fixation_4","","","","","",""
"1738.7999999523163","arrows.png","39","image-keyboard-response","273","774943","0.0-32.0-7.26","","","test","rightarrow","1","2","FALSE","FALSE","true"
"null","<p style=""color: green; font-size:300%;"">correct: $7.50</p>","null","html-keyboard-response","274","776194","0.0-32.0-8.26","","","","","","","","",""
"null","<div style=""font-size:60px;""> </div>","null","html-keyboard-response","275","777246","0.0-32.0-0.27","","","fixation_1","","","","","",""
"null","","null","image-keyboard-response","276","777252","0.0-32.0-1.27","","","test","leftarrow","0","2","FALSE","FALSE",""
"null","<div style=""font-size:60px;""> </div>","null","html-keyboard-response","277","777564","0.0-32.0-2.27","","","fixation_2","","","","","",""
"null","img_4.bmp","null","image-keyboard-response","278","778565","0.0-32.0-3.27","","","img_on","","","","","",""
"null","<div style=""font-size:60px;""> </div>","null","html-keyboard-response","279","778866","0.0-32.0-4.27","","","fixation_3","","","","","",""
"null","","null","html-keyboard-response","280","778871","0.0-32.0-5.27","","","test","leftarrow","0","2","FALSE","FALSE",""
"null","<div style=""font-size:60px;""> </div>","null","html-keyboard-response","281","779173","0.0-32.0-6.27","","","fixation_4","","","","","",""
"1234.2000000476837","arrows.png","37","image-keyboard-response","282","780407","0.0-32.0-7.27","","","test","leftarrow","0","2","FALSE","FALSE","true"
"null","<p style=""color: green; font-size:300%;"">correct: $2.50</p>","null","html-keyboard-response","283","781660","0.0-32.0-8.27","","","","","","","","",""
"null","<div style=""font-size:60px;""> </div>","null","html-keyboard-response","284","783213","0.0-32.0-0.28","","","fixation_1","","","","","",""
"null","","null","image-keyboard-response","285","783219","0.0-32.0-1.28","","","test","downarrow","0","2","FALSE","FALSE",""
"null","<div style=""font-size:60px;""> </div>","null","html-keyboard-response","286","783521","0.0-32.0-2.28","","","fixation_2","","","","","",""
"null","img_3.bmp","null","image-keyboard-response","287","784522","0.0-32.0-3.28","","","img_on","","","","","",""
"null","<div style=""font-size:60px;""> </div>","null","html-keyboard-response","288","784823","0.0-32.0-4.28","","","fixation_3","","","","","",""
"null","","null","html-keyboard-response","289","784828","0.0-32.0-5.28","","","test","downarrow","0","2","FALSE","FALSE",""
"null","<div style=""font-size:60px;""> </div>","null","html-keyboard-response","290","785129","0.0-32.0-6.28","","","fixation_4","","","","","",""
"637.3000000715256","arrows.png","40","image-keyboard-response","291","785767","0.0-32.0-7.28","","","test","downarrow","0","2","FALSE","FALSE","true"
"null","<p style=""color: green; font-size:300%;"">correct: $2.50</p>","null","html-keyboard-response","292","787027","0.0-32.0-8.28","","","","","","","","",""
"null","<div style=""font-size:60px;""> </div>","null","html-keyboard-response","293","787829","0.0-32.0-0.29","","","fixation_1","","","","","",""
"null","","null","image-keyboard-response","294","787835","0.0-32.0-1.29","","","test","rightarrow","1","2","FALSE","FALSE",""
"null","<div style=""font-size:60px;""> </div>","null","html-keyboard-response","295","788135","0.0-32.0-2.29","","","fixation_2","","","","","",""
"null","img_2.bmp","null","image-keyboard-response","296","789137","0.0-32.0-3.29","","","img_on","","","","","",""
"null","<div style=""font-size:60px;""> </div>","null","html-keyboard-response","297","789438","0.0-32.0-4.29","","","fixation_3","","","","","",""
"null","","null","html-keyboard-response","298","789443","0.0-32.0-5.29","","","test","rightarrow","1","2","FALSE","FALSE",""
"null","<div style=""font-size:60px;""> </div>","null","html-keyboard-response","299","789744","0.0-32.0-6.29","","","fixation_4","","","","","",""
"2182.2999999523163","arrows.png","37","image-keyboard-response","300","791927","0.0-32.0-7.29","","","test","rightarrow","1","2","FALSE","FALSE","false"
"null","<p style=""color: red; font-size:300%;"">incorrect: $0</p>","null","html-keyboard-response","301","793179","0.0-32.0-8.29","","","","","","","","",""
"null","<div style=""font-size:60px;""> </div>","null","html-keyboard-response","302","793732","0.0-32.0-0.30","","","fixation_1","","","","","",""
"null","","null","image-keyboard-response","303","793738","0.0-32.0-1.30","","","test","leftarrow","0","2","FALSE","FALSE",""
"null","<div style=""font-size:60px;""> </div>","null","html-keyboard-response","304","794039","0.0-32.0-2.30","","","fixation_2","","","","","",""
"null","img_4.bmp","null","image-keyboard-response","305","795041","0.0-32.0-3.30","","","img_on","","","","","",""
"null","<div style=""font-size:60px;""> </div>","null","html-keyboard-response","306","795343","0.0-32.0-4.30","","","fixation_3","","","","","",""
"null","","null","html-keyboard-response","307","795348","0.0-32.0-5.30","","","test","leftarrow","0","2","FALSE","FALSE",""
"null","<div style=""font-size:60px;""> </div>","null","html-keyboard-response","308","795649","0.0-32.0-6.30","","","fixation_4","","","","","",""
"605.1000000238419","arrows.png","37","image-keyboard-response","309","796255","0.0-32.0-7.30","","","test","leftarrow","0","2","FALSE","FALSE","true"
"null","<p style=""color: green; font-size:300%;"">correct: $2.50</p>","null","html-keyboard-response","310","797506","0.0-32.0-8.30","","","","","","","","",""
"null","<div style=""font-size:60px;""> </div>","null","html-keyboard-response","311","798558","0.0-32.0-0.31","","","fixation_1","","","","","",""
"null","","null","image-keyboard-response","312","798563","0.0-32.0-1.31","","","test","uparrow","1","2","FALSE","FALSE",""
"null","<div style=""font-size:60px;""> </div>","null","html-keyboard-response","313","798863","0.0-32.0-2.31","","","fixation_2","","","","","",""
"null","img_1.bmp","null","image-keyboard-response","314","799864","0.0-32.0-3.31","","","img_on","","","","","",""
"null","<div style=""font-size:60px;""> </div>","null","html-keyboard-response","315","800166","0.0-32.0-4.31","","","fixation_3","","","","","",""
"null","","null","html-keyboard-response","316","800171","0.0-32.0-5.31","","","test","uparrow","1","2","FALSE","FALSE",""
"null","<div style=""font-size:60px;""> </div>","null","html-keyboard-response","317","800473","0.0-32.0-6.31","","","fixation_4","","","","","",""
"581.8000000715256","arrows.png","38","image-keyboard-response","318","801055","0.0-32.0-7.31","","","test","uparrow","1","2","FALSE","FALSE","true"
"null","<p style=""color: green; font-size:300%;"">correct: $7.50</p>","null","html-keyboard-response","319","802306","0.0-32.0-8.31","","","","","","","","",""
"null","<div style=""font-size:60px;""> </div>","null","html-keyboard-response","320","802859","0.0-32.0-0.32","","","fixation_1","","","","","",""
"null","","null","image-keyboard-response","321","802864","0.0-32.0-1.32","","","test","rightarrow","1","2","FALSE","FALSE",""
"null","<div style=""font-size:60px;""> </div>","null","html-keyboard-response","322","803165","0.0-32.0-2.32","","","fixation_2","","","","","",""
"null","img_2.bmp","null","image-keyboard-response","323","804166","0.0-32.0-3.32","","","img_on","","","","","",""
"null","<div style=""font-size:60px;""> </div>","null","html-keyboard-response","324","804468","0.0-32.0-4.32","","","fixation_3","","","","","",""
"null","","null","html-keyboard-response","325","804473","0.0-32.0-5.32","","","test","rightarrow","1","2","FALSE","FALSE",""
"null","<div style=""font-size:60px;""> </div>","null","html-keyboard-response","326","804774","0.0-32.0-6.32","","","fixation_4","","","","","",""
"1424.7000000476837","arrows.png","39","image-keyboard-response","327","806199","0.0-32.0-7.32","","","test","rightarrow","1","2","FALSE","FALSE","true"
"null","<p style=""color: green; font-size:300%;"">correct: $7.50</p>","null","html-keyboard-response","328","807451","0.0-32.0-8.32","","","","","","","","",""
"null","<div style=""font-size:60px;""> </div>","null","html-keyboard-response","329","808003","0.0-32.0-0.33","","","fixation_1","","","","","",""
"null","","null","image-keyboard-response","330","808009","0.0-32.0-1.33","","","test","leftarrow","0","2","FALSE","FALSE",""
"null","<div style=""font-size:60px;""> </div>","null","html-keyboard-response","331","808310","0.0-32.0-2.33","","","fixation_2","","","","","",""
"null","img_4.bmp","null","image-keyboard-response","332","809312","0.0-32.0-3.33","","","img_on","","","","","",""
"null","<div style=""font-size:60px;""> </div>","null","html-keyboard-response","333","809613","0.0-32.0-4.33","","","fixation_3","","","","","",""
"null","","null","html-keyboard-response","334","809618","0.0-32.0-5.33","","","test","leftarrow","0","2","FALSE","FALSE",""
"null","<div style=""font-size:60px;""> </div>","null","html-keyboard-response","335","809919","0.0-32.0-6.33","","","fixation_4","","","","","",""
"975.2000000476837","arrows.png","37","image-keyboard-response","336","810895","0.0-32.0-7.33","","","test","leftarrow","0","2","FALSE","FALSE","true"
"null","<p style=""color: green; font-size:300%;"">correct: $2.50</p>","null","html-keyboard-response","337","812147","0.0-32.0-8.33","","","","","","","","",""
"null","<div style=""font-size:60px;""> </div>","null","html-keyboard-response","338","813700","0.0-32.0-0.34","","","fixation_1","","","","","",""
"null","","null","image-keyboard-response","339","813705","0.0-32.0-1.34","","","test","downarrow","0","2","FALSE","FALSE",""
"null","<div style=""font-size:60px;""> </div>","null","html-keyboard-response","340","814006","0.0-32.0-2.34","","","fixation_2","","","","","",""
"null","img_3.bmp","null","image-keyboard-response","341","815020","0.0-32.0-3.34","","","img_on","","","","","",""
"null","<div style=""font-size:60px;""> </div>","null","html-keyboard-response","342","815321","0.0-32.0-4.34","","","fixation_3","","","","","",""
"null","","null","html-keyboard-response","343","815326","0.0-32.0-5.34","","","test","downarrow","0","2","FALSE","FALSE",""
"null","<div style=""font-size:60px;""> </div>","null","html-keyboard-response","344","815627","0.0-32.0-6.34","","","fixation_4","","","","","",""
"908.2999999523163","arrows.png","40","image-keyboard-response","345","816535","0.0-32.0-7.34","","","test","downarrow","0","2","FALSE","FALSE","true"
"null","<p style=""color: green; font-size:300%;"">correct: $2.50</p>","null","html-keyboard-response","346","817790","0.0-32.0-8.34","","","","","","","","",""
"null","<div style=""font-size:60px;""> </div>","null","html-keyboard-response","347","818593","0.0-32.0-0.35","","","fixation_1","","","","","",""
"null","","null","image-keyboard-response","348","818598","0.0-32.0-1.35","","","test","uparrow","1","2","FALSE","FALSE",""
"null","<div style=""font-size:60px;""> </div>","null","html-keyboard-response","349","818898","0.0-32.0-2.35","","","fixation_2","","","","","",""
"null","img_1.bmp","null","image-keyboard-response","350","819900","0.0-32.0-3.35","","","img_on","","","","","",""
"null","<div style=""font-size:60px;""> </div>","null","html-keyboard-response","351","820202","0.0-32.0-4.35","","","fixation_3","","","","","",""
"null","","null","html-keyboard-response","352","820208","0.0-32.0-5.35","","","test","uparrow","1","2","FALSE","FALSE",""
"null","<div style=""font-size:60px;""> </div>","null","html-keyboard-response","353","820509","0.0-32.0-6.35","","","fixation_4","","","","","",""
"568.7999999523163","arrows.png","38","image-keyboard-response","354","821079","0.0-32.0-7.35","","","test","uparrow","1","2","FALSE","FALSE","true"
"null","<p style=""color: green; font-size:300%;"">correct: $7.50</p>","null","html-keyboard-response","355","822330","0.0-32.0-8.35","","","","","","","","",""
"null","<div style=""font-size:60px;""> </div>","null","html-keyboard-response","356","823381","0.0-32.0-0.36","","","fixation_1","","","","","",""
"null","","null","image-keyboard-response","357","823387","0.0-32.0-1.36","","","test","rightarrow","1","2","FALSE","FALSE",""
"null","<div style=""font-size:60px;""> </div>","null","html-keyboard-response","358","823689","0.0-32.0-2.36","","","fixation_2","","","","","",""
"null","img_2.bmp","null","image-keyboard-response","359","824692","0.0-32.0-3.36","","","img_on","","","","","",""
"null","<div style=""font-size:60px;""> </div>","null","html-keyboard-response","360","824993","0.0-32.0-4.36","","","fixation_3","","","","","",""
"null","","null","html-keyboard-response","361","824998","0.0-32.0-5.36","","","test","rightarrow","1","2","FALSE","FALSE",""
"null","<div style=""font-size:60px;""> </div>","null","html-keyboard-response","362","825299","0.0-32.0-6.36","","","fixation_4","","","","","",""
"770.8999999761581","arrows.png","39","image-keyboard-response","363","826071","0.0-32.0-7.36","","","test","rightarrow","1","2","FALSE","FALSE","true"
"null","<p style=""color: green; font-size:300%;"">correct: $7.50</p>","null","html-keyboard-response","364","827323","0.0-32.0-8.36","","","","","","","","",""
"null","<div style=""font-size:60px;""> </div>","null","html-keyboard-response","365","828624","0.0-32.0-0.37","","","fixation_1","","","","","",""
"null","","null","image-keyboard-response","366","828629","0.0-32.0-1.37","","","test","leftarrow","0","2","FALSE","FALSE",""
"null","<div style=""font-size:60px;""> </div>","null","html-keyboard-response","367","828931","0.0-32.0-2.37","","","fixation_2","","","","","",""
"null","img_4.bmp","null","image-keyboard-response","368","829933","0.0-32.0-3.37","","","img_on","","","","","",""
"null","<div style=""font-size:60px;""> </div>","null","html-keyboard-response","369","830233","0.0-32.0-4.37","","","fixation_3","","","","","",""
"null","","null","html-keyboard-response","370","830239","0.0-32.0-5.37","","","test","leftarrow","0","2","FALSE","FALSE",""
"null","<div style=""font-size:60px;""> </div>","null","html-keyboard-response","371","830541","0.0-32.0-6.37","","","fixation_4","","","","","",""
"514.2000000476837","arrows.png","37","image-keyboard-response","372","831055","0.0-32.0-7.37","","","test","leftarrow","0","2","FALSE","FALSE","true"
"null","<p style=""color: green; font-size:300%;"">correct: $2.50</p>","null","html-keyboard-response","373","832307","0.0-32.0-8.37","","","","","","","","",""
"null","<div style=""font-size:60px;""> </div>","null","html-keyboard-response","374","833360","0.0-32.0-0.38","","","fixation_1","","","","","",""
"null","","null","image-keyboard-response","375","833365","0.0-32.0-1.38","","","test","uparrow","1","2","FALSE","FALSE",""
"null","<div style=""font-size:60px;""> </div>","null","html-keyboard-response","376","833666","0.0-32.0-2.38","","","fixation_2","","","","","",""
"null","img_1.bmp","null","image-keyboard-response","377","834668","0.0-32.0-3.38","","","img_on","","","","","",""
"null","<div style=""font-size:60px;""> </div>","null","html-keyboard-response","378","834969","0.0-32.0-4.38","","","fixation_3","","","","","",""
"null","","null","html-keyboard-response","379","834974","0.0-32.0-5.38","","","test","uparrow","1","2","FALSE","FALSE",""
"null","<div style=""font-size:60px;""> </div>","null","html-keyboard-response","380","835275","0.0-32.0-6.38","","","fixation_4","","","","","",""
"475.3000000715256","arrows.png","38","image-keyboard-response","381","835751","0.0-32.0-7.38","","","test","uparrow","1","2","FALSE","FALSE","true"
"null","<p style=""color: green; font-size:300%;"">correct: $7.50</p>","null","html-keyboard-response","382","837003","0.0-32.0-8.38","","","","","","","","",""
"null","<div style=""font-size:60px;""> </div>","null","html-keyboard-response","383","838554","0.0-32.0-0.39","","","fixation_1","","","","","",""
"null","","null","image-keyboard-response","384","838559","0.0-32.0-1.39","","","test","downarrow","0","2","FALSE","FALSE",""
"null","<div style=""font-size:60px;""> </div>","null","html-keyboard-response","385","838860","0.0-32.0-2.39","","","fixation_2","","","","","",""
"null","img_3.bmp","null","image-keyboard-response","386","839860","0.0-32.0-3.39","","","img_on","","","","","",""
"null","<div style=""font-size:60px;""> </div>","null","html-keyboard-response","387","840161","0.0-32.0-4.39","","","fixation_3","","","","","",""
"null","","null","html-keyboard-response","388","840166","0.0-32.0-5.39","","","test","downarrow","0","2","FALSE","FALSE",""
"null","<div style=""font-size:60px;""> </div>","null","html-keyboard-response","389","840468","0.0-32.0-6.39","","","fixation_4","","","","","",""
"466","arrows.png","40","image-keyboard-response","390","840935","0.0-32.0-7.39","","","test","downarrow","0","2","FALSE","FALSE","true"
"null","<p style=""color: green; font-size:300%;"">correct: $2.50</p>","null","html-keyboard-response","391","842188","0.0-32.0-8.39","","","","","","","","",""
"null","<div style=""font-size:60px;""> </div>","null","html-keyboard-response","392","842740","0.0-32.0-0.40","","","fixation_1","","","","","",""
"null","switch_cue.png","null","image-keyboard-response","393","843742","0.0-32.0-1.40","","","test","rightarrow","0","1","TRUE","TRUE",""
"null","<div style=""font-size:60px;""> </div>","null","html-keyboard-response","394","844042","0.0-32.0-2.40","","","fixation_2","","","","","",""
"null","img_1.bmp","null","image-keyboard-response","395","845043","0.0-32.0-3.40","","","img_on","","","","","",""
"null","<div style=""font-size:60px;""> </div>","null","html-keyboard-response","396","845344","0.0-32.0-4.40","","","fixation_3","","","","","",""
"null","<img src=""CC1.png"" width=200 height=200/>","null","html-keyboard-response","397","846345","0.0-32.0-5.40","","","test","rightarrow","0","1","TRUE","TRUE",""
"null","<div style=""font-size:60px;""> </div>","null","html-keyboard-response","398","846646","0.0-32.0-6.40","","","fixation_4","","","","","",""
"225.10000002384186","arrows.png","39","image-keyboard-response","399","846871","0.0-32.0-7.40","","","test","rightarrow","0","1","TRUE","TRUE","true"
"null","<p style=""color: green; font-size:300%;"">correct: $2.50</p>","null","html-keyboard-response","400","848123","0.0-32.0-8.40","","","","","","","","",""
"null","<div style=""font-size:60px;""> </div>","null","html-keyboard-response","401","849176","0.0-32.0-0.41","","","fixation_1","","","","","",""
"null","","null","image-keyboard-response","402","849182","0.0-32.0-1.41","","","test","uparrow","0","1","TRUE","FALSE",""
"null","<div style=""font-size:60px;""> </div>","null","html-keyboard-response","403","849483","0.0-32.0-2.41","","","fixation_2","","","","","",""
"null","img_4.bmp","null","image-keyboard-response","404","850485","0.0-32.0-3.41","","","img_on","","","","","",""
"null","<div style=""font-size:60px;""> </div>","null","html-keyboard-response","405","850787","0.0-32.0-4.41","","","fixation_3","","","","","",""
"null","<img src=""CC1.png"" width=200 height=200/>","null","html-keyboard-response","406","851788","0.0-32.0-5.41","","","test","uparrow","0","1","TRUE","FALSE",""
"null","<div style=""font-size:60px;""> </div>","null","html-keyboard-response","407","852090","0.0-32.0-6.41","","","fixation_4","","","","","",""
"380.5","arrows.png","38","image-keyboard-response","408","852471","0.0-32.0-7.41","","","test","uparrow","0","1","TRUE","FALSE","true"
"null","<p style=""color: green; font-size:300%;"">correct: $2.50</p>","null","html-keyboard-response","409","853723","0.0-32.0-8.41","","","","","","","","",""
"null","<div style=""font-size:60px;""> </div>","null","html-keyboard-response","410","855275","0.0-32.0-0.42","","","fixation_1","","","","","",""
"null","","null","image-keyboard-response","411","855281","0.0-32.0-1.42","","","test","leftarrow","1","1","TRUE","FALSE",""
"null","<div style=""font-size:60px;""> </div>","null","html-keyboard-response","412","855582","0.0-32.0-2.42","","","fixation_2","","","","","",""
"null","img_3.bmp","null","image-keyboard-response","413","856583","0.0-32.0-3.42","","","img_on","","","","","",""
"null","<div style=""font-size:60px;""> </div>","null","html-keyboard-response","414","856885","0.0-32.0-4.42","","","fixation_3","","","","","",""
"null","<img src=""CC1.png"" width=200 height=200/>","null","html-keyboard-response","415","857886","0.0-32.0-5.42","","","test","leftarrow","1","1","TRUE","FALSE",""
"null","<div style=""font-size:60px;""> </div>","null","html-keyboard-response","416","858188","0.0-32.0-6.42","","","fixation_4","","","","","",""
"307","arrows.png","37","image-keyboard-response","417","858495","0.0-32.0-7.42","","","test","leftarrow","1","1","TRUE","FALSE","true"
"null","<p style=""color: green; font-size:300%;"">correct: $7.50</p>","null","html-keyboard-response","418","859748","0.0-32.0-8.42","","","","","","","","",""
"null","<div style=""font-size:60px;""> </div>","null","html-keyboard-response","419","860800","0.0-32.0-0.43","","","fixation_1","","","","","",""
"null","","null","image-keyboard-response","420","860805","0.0-32.0-1.43","","","test","downarrow","1","1","TRUE","FALSE",""
"null","<div style=""font-size:60px;""> </div>","null","html-keyboard-response","421","861107","0.0-32.0-2.43","","","fixation_2","","","","","",""
"null","img_2.bmp","null","image-keyboard-response","422","862107","0.0-32.0-3.43","","","img_on","","","","","",""
"null","<div style=""font-size:60px;""> </div>","null","html-keyboard-response","423","862408","0.0-32.0-4.43","","","fixation_3","","","","","",""
"null","<img src=""CC1.png"" width=200 height=200/>","null","html-keyboard-response","424","863409","0.0-32.0-5.43","","","test","downarrow","1","1","TRUE","FALSE",""
"null","<div style=""font-size:60px;""> </div>","null","html-keyboard-response","425","863711","0.0-32.0-6.43","","","fixation_4","","","","","",""
"271.39999997615814","arrows.png","40","image-keyboard-response","426","863983","0.0-32.0-7.43","","","test","downarrow","1","1","TRUE","FALSE","true"
"null","<p style=""color: green; font-size:300%;"">correct: $7.50</p>","null","html-keyboard-response","427","865235","0.0-32.0-8.43","","","","","","","","",""
"null","<div style=""font-size:60px;""> </div>","null","html-keyboard-response","428","866037","0.0-32.0-0.44","","","fixation_1","","","","","",""
"null","","null","image-keyboard-response","429","866042","0.0-32.0-1.44","","","test","uparrow","0","1","FALSE","FALSE",""
"null","<div style=""font-size:60px;""> </div>","null","html-keyboard-response","430","866343","0.0-32.0-2.44","","","fixation_2","","","","","",""
"null","img_4.bmp","null","image-keyboard-response","431","867345","0.0-32.0-3.44","","","img_on","","","","","",""
"null","<div style=""font-size:60px;""> </div>","null","html-keyboard-response","432","867646","0.0-32.0-4.44","","","fixation_3","","","","","",""
"null","","null","html-keyboard-response","433","867651","0.0-32.0-5.44","","","test","uparrow","0","1","FALSE","FALSE",""
"null","<div style=""font-size:60px;""> </div>","null","html-keyboard-response","434","867952","0.0-32.0-6.44","","","fixation_4","","","","","",""
"894.8000000715256","arrows.png","38","image-keyboard-response","435","868847","0.0-32.0-7.44","","","test","uparrow","0","1","FALSE","FALSE","true"
"null","<p style=""color: green; font-size:300%;"">correct: $2.50</p>","null","html-keyboard-response","436","870100","0.0-32.0-8.44","","","","","","","","",""
"null","<div style=""font-size:60px;""> </div>","null","html-keyboard-response","437","870902","0.0-32.0-0.45","","","fixation_1","","","","","",""
"null","","null","image-keyboard-response","438","870907","0.0-32.0-1.45","","","test","downarrow","1","1","FALSE","FALSE",""
"null","<div style=""font-size:60px;""> </div>","null","html-keyboard-response","439","871208","0.0-32.0-2.45","","","fixation_2","","","","","",""
"null","img_2.bmp","null","image-keyboard-response","440","872210","0.0-32.0-3.45","","","img_on","","","","","",""
"null","<div style=""font-size:60px;""> </div>","null","html-keyboard-response","441","872511","0.0-32.0-4.45","","","fixation_3","","","","","",""
"null","","null","html-keyboard-response","442","872516","0.0-32.0-5.45","","","test","downarrow","1","1","FALSE","FALSE",""
"null","<div style=""font-size:60px;""> </div>","null","html-keyboard-response","443","872817","0.0-32.0-6.45","","","fixation_4","","","","","",""
"781.5","arrows.png","40","image-keyboard-response","444","873599","0.0-32.0-7.45","","","test","downarrow","1","1","FALSE","FALSE","true"
"null","<p style=""color: green; font-size:300%;"">correct: $7.50</p>","null","html-keyboard-response","445","874851","0.0-32.0-8.45","","","","","","","","",""
"null","<div style=""font-size:60px;""> </div>","null","html-keyboard-response","446","875404","0.0-32.0-0.46","","","fixation_1","","","","","",""
"null","","null","image-keyboard-response","447","875409","0.0-32.0-1.46","","","test","rightarrow","0","1","FALSE","FALSE",""
"null","<div style=""font-size:60px;""> </div>","null","html-keyboard-response","448","875709","0.0-32.0-2.46","","","fixation_2","","","","","",""
"null","img_1.bmp","null","image-keyboard-response","449","876710","0.0-32.0-3.46","","","img_on","","","","","",""
"null","<div style=""font-size:60px;""> </div>","null","html-keyboard-response","450","877012","0.0-32.0-4.46","","","fixation_3","","","","","",""
"null","","null","html-keyboard-response","451","877017","0.0-32.0-5.46","","","test","rightarrow","0","1","FALSE","FALSE",""
"null","<div style=""font-size:60px;""> </div>","null","html-keyboard-response","452","877318","0.0-32.0-6.46","","","fixation_4","","","","","",""
"480.40000009536743","arrows.png","39","image-keyboard-response","453","877799","0.0-32.0-7.46","","","test","rightarrow","0","1","FALSE","FALSE","true"
"null","<p style=""color: green; font-size:300%;"">correct: $2.50</p>","null","html-keyboard-response","454","879051","0.0-32.0-8.46","","","","","","","","",""
"null","<div style=""font-size:60px;""> </div>","null","html-keyboard-response","455","879602","0.0-32.0-0.47","","","fixation_1","","","","","",""
"null","","null","image-keyboard-response","456","879607","0.0-32.0-1.47","","","test","leftarrow","1","1","FALSE","FALSE",""
"null","<div style=""font-size:60px;""> </div>","null","html-keyboard-response","457","879908","0.0-32.0-2.47","","","fixation_2","","","","","",""
"null","img_3.bmp","null","image-keyboard-response","458","880910","0.0-32.0-3.47","","","img_on","","","","","",""
"null","<div style=""font-size:60px;""> </div>","null","html-keyboard-response","459","881212","0.0-32.0-4.47","","","fixation_3","","","","","",""
"null","","null","html-keyboard-response","460","881217","0.0-32.0-5.47","","","test","leftarrow","1","1","FALSE","FALSE",""
"null","<div style=""font-size:60px;""> </div>","null","html-keyboard-response","461","881519","0.0-32.0-6.47","","","fixation_4","","","","","",""
"784.3000000715256","arrows.png","37","image-keyboard-response","462","882303","0.0-32.0-7.47","","","test","leftarrow","1","1","FALSE","FALSE","true"
"null","<p style=""color: green; font-size:300%;"">correct: $7.50</p>","null","html-keyboard-response","463","883555","0.0-32.0-8.47","","","","","","","","",""
"null","<div style=""font-size:60px;""> </div>","null","html-keyboard-response","464","885109","0.0-32.0-0.48","","","fixation_1","","","","","",""
"null","","null","image-keyboard-response","465","885115","0.0-32.0-1.48","","","test","downarrow","1","1","FALSE","FALSE",""
"null","<div style=""font-size:60px;""> </div>","null","html-keyboard-response","466","885415","0.0-32.0-2.48","","","fixation_2","","","","","",""
"null","img_2.bmp","null","image-keyboard-response","467","886416","0.0-32.0-3.48","","","img_on","","","","","",""
"null","<div style=""font-size:60px;""> </div>","null","html-keyboard-response","468","886718","0.0-32.0-4.48","","","fixation_3","","","","","",""
"null","","null","html-keyboard-response","469","886723","0.0-32.0-5.48","","","test","downarrow","1","1","FALSE","FALSE",""
"null","<div style=""font-size:60px;""> </div>","null","html-keyboard-response","470","887024","0.0-32.0-6.48","","","fixation_4","","","","","",""
"526.3000000715256","arrows.png","40","image-keyboard-response","471","887551","0.0-32.0-7.48","","","test","downarrow","1","1","FALSE","FALSE","true"
"null","<p style=""color: green; font-size:300%;"">correct: $7.50</p>","null","html-keyboard-response","472","888803","0.0-32.0-8.48","","","","","","","","",""
"null","<div style=""font-size:60px;""> </div>","null","html-keyboard-response","473","889605","0.0-32.0-0.49","","","fixation_1","","","","","",""
"null","","null","image-keyboard-response","474","889610","0.0-32.0-1.49","","","test","leftarrow","1","1","FALSE","FALSE",""
"null","<div style=""font-size:60px;""> </div>","null","html-keyboard-response","475","889911","0.0-32.0-2.49","","","fixation_2","","","","","",""
"null","img_3.bmp","null","image-keyboard-response","476","890912","0.0-32.0-3.49","","","img_on","","","","","",""
"null","<div style=""font-size:60px;""> </div>","null","html-keyboard-response","477","891213","0.0-32.0-4.49","","","fixation_3","","","","","",""
"null","","null","html-keyboard-response","478","891218","0.0-32.0-5.49","","","test","leftarrow","1","1","FALSE","FALSE",""
"null","<div style=""font-size:60px;""> </div>","null","html-keyboard-response","479","891519","0.0-32.0-6.49","","","fixation_4","","","","","",""
"367.40000009536743","arrows.png","37","image-keyboard-response","480","891887","0.0-32.0-7.49","","","test","leftarrow","1","1","FALSE","FALSE","true"
"null","<p style=""color: green; font-size:300%;"">correct: $7.50</p>","null","html-keyboard-response","481","893139","0.0-32.0-8.49","","","","","","","","",""
"null","<div style=""font-size:60px;""> </div>","null","html-keyboard-response","482","894691","0.0-32.0-0.50","","","fixation_1","","","","","",""
"null","","null","image-keyboard-response","483","894696","0.0-32.0-1.50","","","test","uparrow","0","1","FALSE","FALSE",""
"null","<div style=""font-size:60px;""> </div>","null","html-keyboard-response","484","894997","0.0-32.0-2.50","","","fixation_2","","","","","",""
"null","img_4.bmp","null","image-keyboard-response","485","895998","0.0-32.0-3.50","","","img_on","","","","","",""
"null","<div style=""font-size:60px;""> </div>","null","html-keyboard-response","486","896300","0.0-32.0-4.50","","","fixation_3","","","","","",""
"null","","null","html-keyboard-response","487","896305","0.0-32.0-5.50","","","test","uparrow","0","1","FALSE","FALSE",""
"null","<div style=""font-size:60px;""> </div>","null","html-keyboard-response","488","896605","0.0-32.0-6.50","","","fixation_4","","","","","",""
"497.8000000715256","arrows.png","38","image-keyboard-response","489","897103","0.0-32.0-7.50","","","test","uparrow","0","1","FALSE","FALSE","true"
"null","<p style=""color: green; font-size:300%;"">correct: $2.50</p>","null","html-keyboard-response","490","898356","0.0-32.0-8.50","","","","","","","","",""
"null","<div style=""font-size:60px;""> </div>","null","html-keyboard-response","491","899914","0.0-32.0-0.51","","","fixation_1","","","","","",""
"null","switch_cue.png","null","image-keyboard-response","492","900915","0.0-32.0-1.51","","","test","rightarrow","0","1","TRUE","TRUE",""
"null","<div style=""font-size:60px;""> </div>","null","html-keyboard-response","493","901216","0.0-32.0-2.51","","","fixation_2","","","","","",""
"null","img_1.bmp","null","image-keyboard-response","494","902218","0.0-32.0-3.51","","","img_on","","","","","",""
"null","<div style=""font-size:60px;""> </div>","null","html-keyboard-response","495","902519","0.0-32.0-4.51","","","fixation_3","","","","","",""
"null","<img src=""CC1.png"" width=200 height=200/>","null","html-keyboard-response","496","903520","0.0-32.0-5.51","","","test","rightarrow","0","1","TRUE","TRUE",""
"null","<div style=""font-size:60px;""> </div>","null","html-keyboard-response","497","903822","0.0-32.0-6.51","","","fixation_4","","","","","",""
"1.0999999046325684","arrows.png","39","image-keyboard-response","498","903823","0.0-32.0-7.51","","","test","rightarrow","0","1","TRUE","TRUE","true"
"null","<p style=""color: green; font-size:300%;"">correct: $2.50</p>","null","html-keyboard-response","499","905076","0.0-32.0-8.51","","","","","","","","",""
"null","<div style=""font-size:60px;""> </div>","null","html-keyboard-response","500","906378","0.0-32.0-0.52","","","fixation_1","","","","","",""
"null","switch_cue.png","null","image-keyboard-response","501","907379","0.0-32.0-1.52","","","test","uparrow","1","2","TRUE","TRUE",""
"null","<div style=""font-size:60px;""> </div>","null","html-keyboard-response","502","907681","0.0-32.0-2.52","","","fixation_2","","","","","",""
"null","img_1.bmp","null","image-keyboard-response","503","908682","0.0-32.0-3.52","","","img_on","","","","","",""
"null","<div style=""font-size:60px;""> </div>","null","html-keyboard-response","504","908982","0.0-32.0-4.52","","","fixation_3","","","","","",""
"null","<img src=""CC2.png"" width=200 height=200/>","null","html-keyboard-response","505","909984","0.0-32.0-5.52","","","test","uparrow","1","2","TRUE","TRUE",""
"null","<div style=""font-size:60px;""> </div>","null","html-keyboard-response","506","910285","0.0-32.0-6.52","","","fixation_4","","","","","",""
"601.5","arrows.png","38","image-keyboard-response","507","910887","0.0-32.0-7.52","","","test","uparrow","1","2","TRUE","TRUE","true"
"null","<p style=""color: green; font-size:300%;"">correct: $7.50</p>","null","html-keyboard-response","508","912139","0.0-32.0-8.52","","","","","","","","",""
"null","<div style=""font-size:60px;""> </div>","null","html-keyboard-response","509","913192","0.0-32.0-0.53","","","fixation_1","","","","","",""
"null","","null","image-keyboard-response","510","913198","0.0-32.0-1.53","","","test","downarrow","0","2","TRUE","FALSE",""
"null","<div style=""font-size:60px;""> </div>","null","html-keyboard-response","511","913499","0.0-32.0-2.53","","","fixation_2","","","","","",""
"null","img_3.bmp","null","image-keyboard-response","512","914500","0.0-32.0-3.53","","","img_on","","","","","",""
"null","<div style=""font-size:60px;""> </div>","null","html-keyboard-response","513","914802","0.0-32.0-4.53","","","fixation_3","","","","","",""
"null","<img src=""CC2.png"" width=200 height=200/>","null","html-keyboard-response","514","915803","0.0-32.0-5.53","","","test","downarrow","0","2","TRUE","FALSE",""
"null","<div style=""font-size:60px;""> </div>","null","html-keyboard-response","515","916104","0.0-32.0-6.53","","","fixation_4","","","","","",""
"1534.9000000953674","arrows.png","40","image-keyboard-response","516","917639","0.0-32.0-7.53","","","test","downarrow","0","2","TRUE","FALSE","true"
"null","<p style=""color: green; font-size:300%;"">correct: $2.50</p>","null","html-keyboard-response","517","918891","0.0-32.0-8.53","","","","","","","","",""
"null","<div style=""font-size:60px;""> </div>","null","html-keyboard-response","518","919942","0.0-32.0-0.54","","","fixation_1","","","","","",""
"null","","null","image-keyboard-response","519","919948","0.0-32.0-1.54","","","test","rightarrow","1","2","TRUE","FALSE",""
"null","<div style=""font-size:60px;""> </div>","null","html-keyboard-response","520","920250","0.0-32.0-2.54","","","fixation_2","","","","","",""
"null","img_2.bmp","null","image-keyboard-response","521","921251","0.0-32.0-3.54","","","img_on","","","","","",""
"null","<div style=""font-size:60px;""> </div>","null","html-keyboard-response","522","921558","0.0-32.0-4.54","","","fixation_3","","","","","",""
"null","<img src=""CC2.png"" width=200 height=200/>","null","html-keyboard-response","523","922559","0.0-32.0-5.54","","","test","rightarrow","1","2","TRUE","FALSE",""
"null","<div style=""font-size:60px;""> </div>","null","html-keyboard-response","524","922860","0.0-32.0-6.54","","","fixation_4","","","","","",""
"370.2999999523163","arrows.png","39","image-keyboard-response","525","923231","0.0-32.0-7.54","","","test","rightarrow","1","2","TRUE","FALSE","true"
"null","<p style=""color: green; font-size:300%;"">correct: $7.50</p>","null","html-keyboard-response","526","924483","0.0-32.0-8.54","","","","","","","","",""
"null","<div style=""font-size:60px;""> </div>","null","html-keyboard-response","527","926033","0.0-32.0-0.55","","","fixation_1","","","","","",""
"null","","null","image-keyboard-response","528","926039","0.0-32.0-1.55","","","test","leftarrow","0","2","TRUE","FALSE",""
"null","<div style=""font-size:60px;""> </div>","null","html-keyboard-response","529","926340","0.0-32.0-2.55","","","fixation_2","","","","","",""
"null","img_4.bmp","null","image-keyboard-response","530","927341","0.0-32.0-3.55","","","img_on","","","","","",""
"null","<div style=""font-size:60px;""> </div>","null","html-keyboard-response","531","927643","0.0-32.0-4.55","","","fixation_3","","","","","",""
"null","<img src=""CC2.png"" width=200 height=200/>","null","html-keyboard-response","532","928645","0.0-32.0-5.55","","","test","leftarrow","0","2","TRUE","FALSE",""
"null","<div style=""font-size:60px;""> </div>","null","html-keyboard-response","533","928946","0.0-32.0-6.55","","","fixation_4","","","","","",""
"452.8000000715256","arrows.png","37","image-keyboard-response","534","929399","0.0-32.0-7.55","","","test","leftarrow","0","2","TRUE","FALSE","true"
"null","<p style=""color: green; font-size:300%;"">correct: $2.50</p>","null","html-keyboard-response","535","930652","0.0-32.0-8.55","","","","","","","","",""
"null","<div style=""font-size:60px;""> </div>","null","html-keyboard-response","536","931204","0.0-32.0-0.56","","","fixation_1","","","","","",""
"null","","null","image-keyboard-response","537","931209","0.0-32.0-1.56","","","test","leftarrow","0","2","FALSE","FALSE",""
"null","<div style=""font-size:60px;""> </div>","null","html-keyboard-response","538","931510","0.0-32.0-2.56","","","fixation_2","","","","","",""
"null","img_4.bmp","null","image-keyboard-response","539","932511","0.0-32.0-3.56","","","img_on","","","","","",""
"null","<div style=""font-size:60px;""> </div>","null","html-keyboard-response","540","932813","0.0-32.0-4.56","","","fixation_3","","","","","",""
"null","","null","html-keyboard-response","541","932818","0.0-32.0-5.56","","","test","leftarrow","0","2","FALSE","FALSE",""
"null","<div style=""font-size:60px;""> </div>","null","html-keyboard-response","542","933119","0.0-32.0-6.56","","","fixation_4","","","","","",""
"1295.6000000238419","arrows.png","37","image-keyboard-response","543","934416","0.0-32.0-7.56","","","test","leftarrow","0","2","FALSE","FALSE","true"
"null","<p style=""color: green; font-size:300%;"">correct: $2.50</p>","null","html-keyboard-response","544","935667","0.0-32.0-8.56","","","","","","","","",""
"null","<div style=""font-size:60px;""> </div>","null","html-keyboard-response","545","936968","0.0-32.0-0.57","","","fixation_1","","","","","",""
"null","","null","image-keyboard-response","546","936973","0.0-32.0-1.57","","","test","uparrow","1","2","FALSE","FALSE",""
"null","<div style=""font-size:60px;""> </div>","null","html-keyboard-response","547","937275","0.0-32.0-2.57","","","fixation_2","","","","","",""
"null","img_1.bmp","null","image-keyboard-response","548","938275","0.0-32.0-3.57","","","img_on","","","","","",""
"null","<div style=""font-size:60px;""> </div>","null","html-keyboard-response","549","938576","0.0-32.0-4.57","","","fixation_3","","","","","",""
"null","","null","html-keyboard-response","550","938582","0.0-32.0-5.57","","","test","uparrow","1","2","FALSE","FALSE",""
"null","<div style=""font-size:60px;""> </div>","null","html-keyboard-response","551","938883","0.0-32.0-6.57","","","fixation_4","","","","","",""
"883.5","arrows.png","39","image-keyboard-response","552","939767","0.0-32.0-7.57","","","test","uparrow","1","2","FALSE","FALSE","false"
"null","<p style=""color: red; font-size:300%;"">incorrect: $0</p>","null","html-keyboard-response","553","941018","0.0-32.0-8.57","","","","","","","","",""
"null","<div style=""font-size:60px;""> </div>","null","html-keyboard-response","554","941821","0.0-32.0-0.58","","","fixation_1","","","","","",""
"null","","null","image-keyboard-response","555","941826","0.0-32.0-1.58","","","test","rightarrow","1","2","FALSE","FALSE",""
"null","<div style=""font-size:60px;""> </div>","null","html-keyboard-response","556","942127","0.0-32.0-2.58","","","fixation_2","","","","","",""
"null","img_2.bmp","null","image-keyboard-response","557","943128","0.0-32.0-3.58","","","img_on","","","","","",""
"null","<div style=""font-size:60px;""> </div>","null","html-keyboard-response","558","943429","0.0-32.0-4.58","","","fixation_3","","","","","",""
"null","","null","html-keyboard-response","559","943435","0.0-32.0-5.58","","","test","rightarrow","1","2","FALSE","FALSE",""
"null","<div style=""font-size:60px;""> </div>","null","html-keyboard-response","560","943736","0.0-32.0-6.58","","","fixation_4","","","","","",""
"863.3000000715256","arrows.png","39","image-keyboard-response","561","944599","0.0-32.0-7.58","","","test","rightarrow","1","2","FALSE","FALSE","true"
"null","<p style=""color: green; font-size:300%;"">correct: $7.50</p>","null","html-keyboard-response","562","945851","0.0-32.0-8.58","","","","","","","","",""
"null","<div style=""font-size:60px;""> </div>","null","html-keyboard-response","563","947403","0.0-32.0-0.59","","","fixation_1","","","","","",""
"null","","null","image-keyboard-response","564","947409","0.0-32.0-1.59","","","test","downarrow","0","2","FALSE","FALSE",""
"null","<div style=""font-size:60px;""> </div>","null","html-keyboard-response","565","947710","0.0-32.0-2.59","","","fixation_2","","","","","",""
"null","img_3.bmp","null","image-keyboard-response","566","948712","0.0-32.0-3.59","","","img_on","","","","","",""
"null","<div style=""font-size:60px;""> </div>","null","html-keyboard-response","567","949013","0.0-32.0-4.59","","","fixation_3","","","","","",""
"null","","null","html-keyboard-response","568","949020","0.0-32.0-5.59","","","test","downarrow","0","2","FALSE","FALSE",""
"null","<div style=""font-size:60px;""> </div>","null","html-keyboard-response","569","949321","0.0-32.0-6.59","","","fixation_4","","","","","",""
"636.9000000953674","arrows.png","40","image-keyboard-response","570","949959","0.0-32.0-7.59","","","test","downarrow","0","2","FALSE","FALSE","true"
"null","<p style=""color: green; font-size:300%;"">correct: $2.50</p>","null","html-keyboard-response","571","951210","0.0-32.0-8.59","","","","","","","","",""
"null","<div style=""font-size:60px;""> </div>","null","html-keyboard-response","572","952012","0.0-32.0-0.60","","","fixation_1","","","","","",""
"null","","null","image-keyboard-response","573","952018","0.0-32.0-1.60","","","test","leftarrow","0","2","FALSE","FALSE",""
"null","<div style=""font-size:60px;""> </div>","null","html-keyboard-response","574","952319","0.0-32.0-2.60","","","fixation_2","","","","","",""
"null","img_4.bmp","null","image-keyboard-response","575","953321","0.0-32.0-3.60","","","img_on","","","","","",""
"null","<div style=""font-size:60px;""> </div>","null","html-keyboard-response","576","953622","0.0-32.0-4.60","","","fixation_3","","","","","",""
"null","","null","html-keyboard-response","577","953628","0.0-32.0-5.60","","","test","leftarrow","0","2","FALSE","FALSE",""
"null","<div style=""font-size:60px;""> </div>","null","html-keyboard-response","578","953930","0.0-32.0-6.60","","","fixation_4","","","","","",""
"1517.1000000238419","arrows.png","37","image-keyboard-response","579","955447","0.0-32.0-7.60","","","test","leftarrow","0","2","FALSE","FALSE","true"
"null","<p style=""color: green; font-size:300%;"">correct: $2.50</p>","null","html-keyboard-response","580","956700","0.0-32.0-8.60","","","","","","","","",""
"null","<div style=""font-size:60px;""> </div>","null","html-keyboard-response","581","957503","0.0-32.0-0.61","","","fixation_1","","","","","",""
"null","switch_cue.png","null","image-keyboard-response","582","958504","0.0-32.0-1.61","","","test","rightarrow","1","2","TRUE","TRUE",""
"null","<div style=""font-size:60px;""> </div>","null","html-keyboard-response","583","958805","0.0-32.0-2.61","","","fixation_2","","","","","",""
"null","img_2.bmp","null","image-keyboard-response","584","959806","0.0-32.0-3.61","","","img_on","","","","","",""
"null","<div style=""font-size:60px;""> </div>","null","html-keyboard-response","585","960108","0.0-32.0-4.61","","","fixation_3","","","","","",""
"null","<img src=""CC2.png"" width=200 height=200/>","null","html-keyboard-response","586","961110","0.0-32.0-5.61","","","test","rightarrow","1","2","TRUE","TRUE",""
"null","<div style=""font-size:60px;""> </div>","null","html-keyboard-response","587","961412","0.0-32.0-6.61","","","fixation_4","","","","","",""
"1306.8000000715256","arrows.png","39","image-keyboard-response","588","962719","0.0-32.0-7.61","","","test","rightarrow","1","2","TRUE","TRUE","true"
"null","<p style=""color: green; font-size:300%;"">correct: $7.50</p>","null","html-keyboard-response","589","963972","0.0-32.0-8.61","","","","","","","","",""
"null","<div style=""font-size:60px;""> </div>","null","html-keyboard-response","590","964526","0.0-32.0-0.62","","","fixation_1","","","","","",""
"null","switch_cue.png","null","image-keyboard-response","591","965527","0.0-32.0-1.62","","","test","downarrow","0","2","TRUE","TRUE",""
"null","<div style=""font-size:60px;""> </div>","null","html-keyboard-response","592","965827","0.0-32.0-2.62","","","fixation_2","","","","","",""
"null","img_3.bmp","null","image-keyboard-response","593","966829","0.0-32.0-3.62","","","img_on","","","","","",""
"null","<div style=""font-size:60px;""> </div>","null","html-keyboard-response","594","967130","0.0-32.0-4.62","","","fixation_3","","","","","",""
"null","<img src=""CC2.png"" width=200 height=200/>","null","html-keyboard-response","595","968133","0.0-32.0-5.62","","","test","downarrow","0","2","TRUE","TRUE",""
"null","<div style=""font-size:60px;""> </div>","null","html-keyboard-response","596","968434","0.0-32.0-6.62","","","fixation_4","","","","","",""
"253.5","arrows.png","40","image-keyboard-response","597","968687","0.0-32.0-7.62","","","test","downarrow","0","2","TRUE","TRUE","true"
"null","<p style=""color: green; font-size:300%;"">correct: $2.50</p>","null","html-keyboard-response","598","969938","0.0-32.0-8.62","","","","","","","","",""
"null","<div style=""font-size:60px;""> </div>","null","html-keyboard-response","599","971241","0.0-32.0-0.63","","","fixation_1","","","","","",""
"null","switch_cue.png","null","image-keyboard-response","600","972242","0.0-32.0-1.63","","","test","uparrow","1","2","TRUE","TRUE",""
"null","<div style=""font-size:60px;""> </div>","null","html-keyboard-response","601","972544","0.0-32.0-2.63","","","fixation_2","","","","","",""
"null","img_1.bmp","null","image-keyboard-response","602","973545","0.0-32.0-3.63","","","img_on","","","","","",""
"null","<div style=""font-size:60px;""> </div>","null","html-keyboard-response","603","973846","0.0-32.0-4.63","","","fixation_3","","","","","",""
"null","<img src=""CC2.png"" width=200 height=200/>","null","html-keyboard-response","604","974847","0.0-32.0-5.63","","","test","uparrow","1","2","TRUE","TRUE",""
"null","<div style=""font-size:60px;""> </div>","null","html-keyboard-response","605","975148","0.0-32.0-6.63","","","fixation_4","","","","","",""
"442.2999999523163","arrows.png","38","image-keyboard-response","606","975591","0.0-32.0-7.63","","","test","uparrow","1","2","TRUE","TRUE","true"
"null","<p style=""color: green; font-size:300%;"">correct: $7.50</p>","null","html-keyboard-response","607","976843","0.0-32.0-8.63","","","","","","","","",""
"null","<div style=""font-size:60px;""> </div>","null","html-keyboard-response","608","978146","0.0-32.0-0.64","","","fixation_1","","","","","",""
"null","switch_cue.png","null","image-keyboard-response","609","979148","0.0-32.0-1.64","","","test","uparrow","0","1","TRUE","TRUE",""
"null","<div style=""font-size:60px;""> </div>","null","html-keyboard-response","610","979449","0.0-32.0-2.64","","","fixation_2","","","","","",""
"null","img_4.bmp","null","image-keyboard-response","611","980450","0.0-32.0-3.64","","","img_on","","","","","",""
"null","<div style=""font-size:60px;""> </div>","null","html-keyboard-response","612","980751","0.0-32.0-4.64","","","fixation_3","","","","","",""
"null","<img src=""CC1.png"" width=200 height=200/>","null","html-keyboard-response","613","981752","0.0-32.0-5.64","","","test","uparrow","0","1","TRUE","TRUE",""
"null","<div style=""font-size:60px;""> </div>","null","html-keyboard-response","614","982053","0.0-32.0-6.64","","","fixation_4","","","","","",""
"897.6000000238419","arrows.png","38","image-keyboard-response","615","982951","0.0-32.0-7.64","","","test","uparrow","0","1","TRUE","TRUE","true"
"null","<p style=""color: green; font-size:300%;"">correct: $2.50</p>","null","html-keyboard-response","616","984203","0.0-32.0-8.64","","","","","","","","",""
"null","<div style=""font-size:60px;""> </div>","null","html-keyboard-response","617","985004","0.0-32.0-0.65","","","fixation_1","","","","","",""
"null","","null","image-keyboard-response","618","985009","0.0-32.0-1.65","","","test","leftarrow","1","1","TRUE","FALSE",""
"null","<div style=""font-size:60px;""> </div>","null","html-keyboard-response","619","985311","0.0-32.0-2.65","","","fixation_2","","","","","",""
"null","img_3.bmp","null","image-keyboard-response","620","986312","0.0-32.0-3.65","","","img_on","","","","","",""
"null","<div style=""font-size:60px;""> </div>","null","html-keyboard-response","621","986612","0.0-32.0-4.65","","","fixation_3","","","","","",""
"null","<img src=""CC1.png"" width=200 height=200/>","null","html-keyboard-response","622","987614","0.0-32.0-5.65","","","test","leftarrow","1","1","TRUE","FALSE",""
"null","<div style=""font-size:60px;""> </div>","null","html-keyboard-response","623","987915","0.0-32.0-6.65","","","fixation_4","","","","","",""
"339.6999999284744","arrows.png","37","image-keyboard-response","624","988255","0.0-32.0-7.65","","","test","leftarrow","1","1","TRUE","FALSE","true"
"null","<p style=""color: green; font-size:300%;"">correct: $7.50</p>","null","html-keyboard-response","625","989507","0.0-32.0-8.65","","","","","","","","",""
"null","<div style=""font-size:60px;""> </div>","null","html-keyboard-response","626","990560","0.0-32.0-0.66","","","fixation_1","","","","","",""
"null","","null","image-keyboard-response","627","990566","0.0-32.0-1.66","","","test","rightarrow","0","1","TRUE","FALSE",""
"null","<div style=""font-size:60px;""> </div>","null","html-keyboard-response","628","990867","0.0-32.0-2.66","","","fixation_2","","","","","",""
"null","img_1.bmp","null","image-keyboard-response","629","991867","0.0-32.0-3.66","","","img_on","","","","","",""
"null","<div style=""font-size:60px;""> </div>","null","html-keyboard-response","630","992169","0.0-32.0-4.66","","","fixation_3","","","","","",""
"null","<img src=""CC1.png"" width=200 height=200/>","null","html-keyboard-response","631","993170","0.0-32.0-5.66","","","test","rightarrow","0","1","TRUE","FALSE",""
"null","<div style=""font-size:60px;""> </div>","null","html-keyboard-response","632","993471","0.0-32.0-6.66","","","fixation_4","","","","","",""
"1847.5","arrows.png","39","image-keyboard-response","633","995319","0.0-32.0-7.66","","","test","rightarrow","0","1","TRUE","FALSE","true"
"null","<p style=""color: green; font-size:300%;"">correct: $2.50</p>","null","html-keyboard-response","634","996572","0.0-32.0-8.66","","","","","","","","",""
"null","<div style=""font-size:60px;""> </div>","null","html-keyboard-response","635","997375","0.0-32.0-0.67","","","fixation_1","","","","","",""
"null","","null","image-keyboard-response","636","997381","0.0-32.0-1.67","","","test","downarrow","1","1","TRUE","FALSE",""
"null","<div style=""font-size:60px;""> </div>","null","html-keyboard-response","637","997683","0.0-32.0-2.67","","","fixation_2","","","","","",""
"null","img_2.bmp","null","image-keyboard-response","638","998684","0.0-32.0-3.67","","","img_on","","","","","",""
"null","<div style=""font-size:60px;""> </div>","null","html-keyboard-response","639","998985","0.0-32.0-4.67","","","fixation_3","","","","","",""
"null","<img src=""CC1.png"" width=200 height=200/>","null","html-keyboard-response","640","999985","0.0-32.0-5.67","","","test","downarrow","1","1","TRUE","FALSE",""
"null","<div style=""font-size:60px;""> </div>","null","html-keyboard-response","641","1000298","0.0-32.0-6.67","","","fixation_4","","","","","",""
"284.2999999523163","arrows.png","40","image-keyboard-response","642","1000583","0.0-32.0-7.67","","","test","downarrow","1","1","TRUE","FALSE","true"
"null","<p style=""color: green; font-size:300%;"">correct: $7.50</p>","null","html-keyboard-response","643","1001835","0.0-32.0-8.67","","","","","","","","",""
"null","<div style=""font-size:60px;""> </div>","null","html-keyboard-response","644","1003387","0.0-32.0-0.68","","","fixation_1","","","","","",""
"null","","null","image-keyboard-response","645","1003393","0.0-32.0-1.68","","","test","uparrow","0","1","FALSE","FALSE",""
"null","<div style=""font-size:60px;""> </div>","null","html-keyboard-response","646","1003695","0.0-32.0-2.68","","","fixation_2","","","","","",""
"null","img_4.bmp","null","image-keyboard-response","647","1004696","0.0-32.0-3.68","","","img_on","","","","","",""
"null","<div style=""font-size:60px;""> </div>","null","html-keyboard-response","648","1005005","0.0-32.0-4.68","","","fixation_3","","","","","",""
"null","","null","html-keyboard-response","649","1005011","0.0-32.0-5.68","","","test","uparrow","0","1","FALSE","FALSE",""
"null","<div style=""font-size:60px;""> </div>","null","html-keyboard-response","650","1005312","0.0-32.0-6.68","","","fixation_4","","","","","",""
"1374.8000000715256","arrows.png","38","image-keyboard-response","651","1006687","0.0-32.0-7.68","","","test","uparrow","0","1","FALSE","FALSE","true"
"null","<p style=""color: green; font-size:300%;"">correct: $2.50</p>","null","html-keyboard-response","652","1007940","0.0-32.0-8.68","","","","","","","","",""
"null","<div style=""font-size:60px;""> </div>","null","html-keyboard-response","653","1008991","0.0-32.0-0.69","","","fixation_1","","","","","",""
"null","","null","image-keyboard-response","654","1008996","0.0-32.0-1.69","","","test","rightarrow","0","1","FALSE","FALSE",""
"null","<div style=""font-size:60px;""> </div>","null","html-keyboard-response","655","1009297","0.0-32.0-2.69","","","fixation_2","","","","","",""
"null","img_1.bmp","null","image-keyboard-response","656","1010298","0.0-32.0-3.69","","","img_on","","","","","",""
"null","<div style=""font-size:60px;""> </div>","null","html-keyboard-response","657","1010600","0.0-32.0-4.69","","","fixation_3","","","","","",""
"null","","null","html-keyboard-response","658","1010605","0.0-32.0-5.69","","","test","rightarrow","0","1","FALSE","FALSE",""
"null","<div style=""font-size:60px;""> </div>","null","html-keyboard-response","659","1010906","0.0-32.0-6.69","","","fixation_4","","","","","",""
"2389","arrows.png","38","image-keyboard-response","660","1013295","0.0-32.0-7.69","","","test","rightarrow","0","1","FALSE","FALSE","false"
"null","<p style=""color: red; font-size:300%;"">incorrect: $0</p>","null","html-keyboard-response","661","1014548","0.0-32.0-8.69","","","","","","","","",""
"null","<div style=""font-size:60px;""> </div>","null","html-keyboard-response","662","1015601","0.0-32.0-0.70","","","fixation_1","","","","","",""
"null","","null","image-keyboard-response","663","1015606","0.0-32.0-1.70","","","test","downarrow","1","1","FALSE","FALSE",""
"null","<div style=""font-size:60px;""> </div>","null","html-keyboard-response","664","1015907","0.0-32.0-2.70","","","fixation_2","","","","","",""
"null","img_2.bmp","null","image-keyboard-response","665","1016908","0.0-32.0-3.70","","","img_on","","","","","",""
"null","<div style=""font-size:60px;""> </div>","null","html-keyboard-response","666","1017210","0.0-32.0-4.70","","","fixation_3","","","","","",""
"null","","null","html-keyboard-response","667","1017215","0.0-32.0-5.70","","","test","downarrow","1","1","FALSE","FALSE",""
"null","<div style=""font-size:60px;""> </div>","null","html-keyboard-response","668","1017515","0.0-32.0-6.70","","","fixation_4","","","","","",""
"667.5","arrows.png","40","image-keyboard-response","669","1018183","0.0-32.0-7.70","","","test","downarrow","1","1","FALSE","FALSE","true"
"null","<p style=""color: green; font-size:300%;"">correct: $7.50</p>","null","html-keyboard-response","670","1019435","0.0-32.0-8.70","","","","","","","","",""
"null","<div style=""font-size:60px;""> </div>","null","html-keyboard-response","671","1020487","0.0-32.0-0.71","","","fixation_1","","","","","",""
"null","","null","image-keyboard-response","672","1020492","0.0-32.0-1.71","","","test","leftarrow","1","1","FALSE","FALSE",""
"null","<div style=""font-size:60px;""> </div>","null","html-keyboard-response","673","1020795","0.0-32.0-2.71","","","fixation_2","","","","","",""
"null","img_3.bmp","null","image-keyboard-response","674","1021805","0.0-32.0-3.71","","","img_on","","","","","",""
"null","<div style=""font-size:60px;""> </div>","null","html-keyboard-response","675","1022107","0.0-32.0-4.71","","","fixation_3","","","","","",""
"null","","null","html-keyboard-response","676","1022112","0.0-32.0-5.71","","","test","leftarrow","1","1","FALSE","FALSE",""
"null","<div style=""font-size:60px;""> </div>","null","html-keyboard-response","677","1022413","0.0-32.0-6.71","","","fixation_4","","","","","",""
"922.1999999284744","arrows.png","37","image-keyboard-response","678","1023335","0.0-32.0-7.71","","","test","leftarrow","1","1","FALSE","FALSE","true"
"null","<p style=""color: green; font-size:300%;"">correct: $7.50</p>","null","html-keyboard-response","679","1024587","0.0-32.0-8.71","","","","","","","","",""
"null","<div style=""font-size:60px;""> </div>","null","html-keyboard-response","680","1025389","0.0-32.0-0.72","","","fixation_1","","","","","",""
"null","","null","image-keyboard-response","681","1025395","0.0-32.0-1.72","","","test","uparrow","0","1","FALSE","FALSE",""
"null","<div style=""font-size:60px;""> </div>","null","html-keyboard-response","682","1025696","0.0-32.0-2.72","","","fixation_2","","","","","",""
"null","img_4.bmp","null","image-keyboard-response","683","1026697","0.0-32.0-3.72","","","img_on","","","","","",""
"null","<div style=""font-size:60px;""> </div>","null","html-keyboard-response","684","1027009","0.0-32.0-4.72","","","fixation_3","","","","","",""
"null","","null","html-keyboard-response","685","1027015","0.0-32.0-5.72","","","test","uparrow","0","1","FALSE","FALSE",""
"null","<div style=""font-size:60px;""> </div>","null","html-keyboard-response","686","1027316","0.0-32.0-6.72","","","fixation_4","","","","","",""
"298.6999999284744","arrows.png","38","image-keyboard-response","687","1027615","0.0-32.0-7.72","","","test","uparrow","0","1","FALSE","FALSE","true"
"null","<p style=""color: green; font-size:300%;"">correct: $2.50</p>","null","html-keyboard-response","688","1028867","0.0-32.0-8.72","","","","","","","","",""
"null","<div style=""font-size:60px;""> </div>","null","html-keyboard-response","689","1029920","0.0-32.0-0.73","","","fixation_1","","","","","",""
"null","","null","image-keyboard-response","690","1029925","0.0-32.0-1.73","","","test","leftarrow","1","1","FALSE","FALSE",""
"null","<div style=""font-size:60px;""> </div>","null","html-keyboard-response","691","1030226","0.0-32.0-2.73","","","fixation_2","","","","","",""
"null","img_3.bmp","null","image-keyboard-response","692","1031232","0.0-32.0-3.73","","","img_on","","","","","",""
"null","<div style=""font-size:60px;""> </div>","null","html-keyboard-response","693","1031534","0.0-32.0-4.73","","","fixation_3","","","","","",""
"null","","null","html-keyboard-response","694","1031539","0.0-32.0-5.73","","","test","leftarrow","1","1","FALSE","FALSE",""
"null","<div style=""font-size:60px;""> </div>","null","html-keyboard-response","695","1031839","0.0-32.0-6.73","","","fixation_4","","","","","",""
