"rt","stimulus","key_press","trial_type","trial_index","time_elapsed","internal_node_id","responses","view_history","test_part","correct_response","outcome","context","cc","sc","correct"
"6178.900000095367","<p><b>Welcome to the Picture Learning Game!</b></p>
      <p>The game will take ~35 minutes to complete, and you can make up to $17.50.</p>
      <p>You must use a desktop or laptop computer computer (no mobile devices).</p>
      <p><em>Press any key to continue.</em></p>","39","html-keyboard-response","0","6230","0.0-0.0","","","","","","","","",""
"4970.100000023842","","","survey-text","1","11207","0.0-1.0","{""aws"":""A4W9APAHFWVLO""}","","","","","","","",""
"14696.800000071526","","","survey-text","2","25918","0.0-2.0","{""age"":""40"",""english"":""Y"",""handedness"":""R"",""desktop"":""Y""}","","","","","","","",""
"43463.39999997616","","","instructions","3","69383","0.0-3.0","","[{""page_index"":0,""viewing_time"":2217.899999976158},{""page_index"":1,""viewing_time"":13766.5},{""page_index"":2,""viewing_time"":7595.299999952316},{""page_index"":3,""viewing_time"":16790.800000071526},{""page_index"":4,""viewing_time"":3092.399999976158}]","","","","","","",""
"null","sample1.bmp","null","image-keyboard-response","4","70388","0.0-4.0","","","","","","","","",""
"275.10000002384186","arrows.png","38","image-keyboard-response","5","70965","0.0-5.0","","","","","","","","",""
"37330.799999952316","","","instructions","6","108296","0.0-6.0","","[{""page_index"":0,""viewing_time"":2603.2000000476837},{""page_index"":1,""viewing_time"":32074.199999928474},{""page_index"":2,""viewing_time"":2653}]","","","","","","",""
"null","sample1.bmp","null","image-keyboard-response","7","109321","0.0-7.0","","","","","","","","",""
"null","<img src=""CC1.png"" width=200 height=200/>","null","html-keyboard-response","8","110670","0.0-8.0","","","","","","","","",""
"334.2999999523163","arrows.png","38","image-keyboard-response","9","111326","0.0-9.0","","","","","","","","",""
"6624.699999928474","","","instructions","10","117951","0.0-10.0","","[{""page_index"":0,""viewing_time"":1706.5},{""page_index"":1,""viewing_time"":4917.899999976158}]","","","","","","",""
"null","sample1.bmp","null","image-keyboard-response","11","118973","0.0-11.0","","","","","","","","",""
"null","<img src=""CC2.png"" width=200 height=200/>","null","html-keyboard-response","12","120293","0.0-12.0","","","","","","","","",""
"276.2000000476837","arrows.png","39","image-keyboard-response","13","120901","0.0-13.0","","","","","","","","",""
"49637.39999997616","","","instructions","14","170539","0.0-14.0","","[{""page_index"":0,""viewing_time"":1649},{""page_index"":1,""viewing_time"":17617.399999976158},{""page_index"":2,""viewing_time"":20402.699999928474},{""page_index"":3,""viewing_time"":4015.9000000953674},{""page_index"":4,""viewing_time"":5952}]","","","","","","",""
"null","sample1.bmp","null","image-keyboard-response","15","171541","0.0-15.0","","","","","","","","",""
"3815","arrows.png","39","image-keyboard-response","16","175661","0.0-16.0","","","","","","","","",""
"19639.299999952316","","","instructions","17","195300","0.0-17.0","","[{""page_index"":0,""viewing_time"":2903.100000023842},{""page_index"":1,""viewing_time"":12141},{""page_index"":2,""viewing_time"":4594.899999976158}]","","","","","","",""
"null","sample1.bmp","null","image-keyboard-response","18","196302","0.0-18.0","","","","","","","","",""
"760.5","arrows.png","39","image-keyboard-response","19","197364","0.0-19.0","","","","","","","","",""
"null","<p style=""color: green; font-size:300%;"">correct</p>","null","html-keyboard-response","20","198367","0.0-20.0","","","","","","","","",""
"null","switch_cue.png","null","image-keyboard-response","21","199674","0.0-21.0","","","","","","","","",""
"null","sample1.bmp","null","image-keyboard-response","22","200983","0.0-22.0","","","","","","","","",""
"null","<img src=""CC2.png"" width=200 height=200/>","null","html-keyboard-response","23","202285","0.0-23.0","","","","","","","","",""
"1584.6000000238419","arrows.png","39","image-keyboard-response","24","204173","0.0-24.0","","","","","","","","",""
"null","<p style=""color: green; font-size:300%;"">correct</p>","null","html-keyboard-response","25","205174","0.0-25.0","","","","","","","","",""
"null","switch_cue.png","null","image-keyboard-response","26","206481","0.0-26.0","","","","","","","","",""
"null","sample1.bmp","null","image-keyboard-response","27","207783","0.0-27.0","","","","","","","","",""
"null","<img src=""CC1.png"" width=200 height=200/>","null","html-keyboard-response","28","209086","0.0-28.0","","","","","","","","",""
"297.40000009536743","arrows.png","38","image-keyboard-response","29","209685","0.0-29.0","","","","","","","","",""
"null","<p style=""color: green; font-size:300%;"">correct</p>","null","html-keyboard-response","30","210687","0.0-30.0","","","","","","","","",""
"54080.800000071526","","","instructions","31","265111","0.0-31.0","","[{""page_index"":0,""viewing_time"":12096.800000071526},{""page_index"":1,""viewing_time"":3386.100000023842},{""page_index"":2,""viewing_time"":11015.799999952316},{""page_index"":3,""viewing_time"":11178.299999952316},{""page_index"":4,""viewing_time"":8091.700000047684},{""page_index"":5,""viewing_time"":4052.7999999523163},{""page_index"":6,""viewing_time"":3295.3000000715256},{""page_index"":7,""viewing_time"":963.6000000238419}]","","","","","","",""
"null","<div style=""font-size:60px;""> </div>","null","html-keyboard-response","32","265413","0.0-32.0-0.0","","","fixation_1","","","","","",""
"null","","null","image-keyboard-response","33","265418","0.0-32.0-1.0","","","test","rightarrow","1","1","TRUE","FALSE",""
"null","<div style=""font-size:60px;""> </div>","null","html-keyboard-response","34","265720","0.0-32.0-2.0","","","fixation_2","","","","","",""
"null","img_2.bmp","null","image-keyboard-response","35","266724","0.0-32.0-3.0","","","img_on","","","","","",""
"null","<div style=""font-size:60px;""> </div>","null","html-keyboard-response","36","267034","0.0-32.0-4.0","","","fixation_3","","","","","",""
"null","<img src=""CC1.png"" width=200 height=200/>","null","html-keyboard-response","37","268037","0.0-32.0-5.0","","","test","rightarrow","1","1","TRUE","FALSE",""
"null","<div style=""font-size:60px;""> </div>","null","html-keyboard-response","38","268340","0.0-32.0-6.0","","","fixation_4","","","","","",""
"400.60000002384186","arrows.png","38","image-keyboard-response","39","268741","0.0-32.0-7.0","","","test","rightarrow","1","1","TRUE","FALSE","false"
"null","<p style=""color: red; font-size:300%;"">incorrect: $0</p>","null","html-keyboard-response","40","269997","0.0-32.0-8.0","","","","","","","","",""
"null","<div style=""font-size:60px;""> </div>","null","html-keyboard-response","41","271556","0.0-32.0-0.1","","","fixation_1","","","","","",""
"null","","null","image-keyboard-response","42","271562","0.0-32.0-1.1","","","test","leftarrow","0","1","TRUE","FALSE",""
"null","<div style=""font-size:60px;""> </div>","null","html-keyboard-response","43","271863","0.0-32.0-2.1","","","fixation_2","","","","","",""
"null","img_4.bmp","null","image-keyboard-response","44","272865","0.0-32.0-3.1","","","img_on","","","","","",""
"null","<div style=""font-size:60px;""> </div>","null","html-keyboard-response","45","273167","0.0-32.0-4.1","","","fixation_3","","","","","",""
"null","<img src=""CC1.png"" width=200 height=200/>","null","html-keyboard-response","46","274169","0.0-32.0-5.1","","","test","leftarrow","0","1","TRUE","FALSE",""
"null","<div style=""font-size:60px;""> </div>","null","html-keyboard-response","47","274471","0.0-32.0-6.1","","","fixation_4","","","","","",""
"287.2000000476837","arrows.png","38","image-keyboard-response","48","274759","0.0-32.0-7.1","","","test","leftarrow","0","1","TRUE","FALSE","false"
"null","<p style=""color: red; font-size:300%;"">incorrect: $0</p>","null","html-keyboard-response","49","276012","0.0-32.0-8.1","","","","","","","","",""
"null","<div style=""font-size:60px;""> </div>","null","html-keyboard-response","50","277565","0.0-32.0-0.2","","","fixation_1","","","","","",""
"null","","null","image-keyboard-response","51","277572","0.0-32.0-1.2","","","test","downarrow","0","1","TRUE","FALSE",""
"null","<div style=""font-size:60px;""> </div>","null","html-keyboard-response","52","277873","0.0-32.0-2.2","","","fixation_2","","","","","",""
"null","img_3.bmp","null","image-keyboard-response","53","278875","0.0-32.0-3.2","","","img_on","","","","","",""
"null","<div style=""font-size:60px;""> </div>","null","html-keyboard-response","54","279176","0.0-32.0-4.2","","","fixation_3","","","","","",""
"null","<img src=""CC1.png"" width=200 height=200/>","null","html-keyboard-response","55","280180","0.0-32.0-5.2","","","test","downarrow","0","1","TRUE","FALSE",""
"null","<div style=""font-size:60px;""> </div>","null","html-keyboard-response","56","280482","0.0-32.0-6.2","","","fixation_4","","","","","",""
"266.5","arrows.png","38","image-keyboard-response","57","280749","0.0-32.0-7.2","","","test","downarrow","0","1","TRUE","FALSE","false"
"null","<p style=""color: red; font-size:300%;"">incorrect: $0</p>","null","html-keyboard-response","58","282003","0.0-32.0-8.2","","","","","","","","",""
"null","<div style=""font-size:60px;""> </div>","null","html-keyboard-response","59","282804","0.0-32.0-0.3","","","fixation_1","","","","","",""
"null","","null","image-keyboard-response","60","282810","0.0-32.0-1.3","","","test","uparrow","1","1","TRUE","FALSE",""
"null","<div style=""font-size:60px;""> </div>","null","html-keyboard-response","61","283116","0.0-32.0-2.3","","","fixation_2","","","","","",""
"null","img_1.bmp","null","image-keyboard-response","62","284117","0.0-32.0-3.3","","","img_on","","","","","",""
"null","<div style=""font-size:60px;""> </div>","null","html-keyboard-response","63","284418","0.0-32.0-4.3","","","fixation_3","","","","","",""
"null","<img src=""CC1.png"" width=200 height=200/>","null","html-keyboard-response","64","285439","0.0-32.0-5.3","","","test","uparrow","1","1","TRUE","FALSE",""
"null","<div style=""font-size:60px;""> </div>","null","html-keyboard-response","65","285741","0.0-32.0-6.3","","","fixation_4","","","","","",""
"336.5","arrows.png","38","image-keyboard-response","66","286078","0.0-32.0-7.3","","","test","uparrow","1","1","TRUE","FALSE","true"
"null","<p style=""color: green; font-size:300%;"">correct: $7.50</p>","null","html-keyboard-response","67","287331","0.0-32.0-8.3","","","","","","","","",""
"null","<div style=""font-size:60px;""> </div>","null","html-keyboard-response","68","288133","0.0-32.0-0.4","","","fixation_1","","","","","",""
"null","","null","image-keyboard-response","69","288139","0.0-32.0-1.4","","","test","uparrow","1","1","FALSE","FALSE",""
"null","<div style=""font-size:60px;""> </div>","null","html-keyboard-response","70","288443","0.0-32.0-2.4","","","fixation_2","","","","","",""
"null","img_1.bmp","null","image-keyboard-response","71","289445","0.0-32.0-3.4","","","img_on","","","","","",""
"null","<div style=""font-size:60px;""> </div>","null","html-keyboard-response","72","289747","0.0-32.0-4.4","","","fixation_3","","","","","",""
"null","","null","html-keyboard-response","73","289753","0.0-32.0-5.4","","","test","uparrow","1","1","FALSE","FALSE",""
"null","<div style=""font-size:60px;""> </div>","null","html-keyboard-response","74","290054","0.0-32.0-6.4","","","fixation_4","","","","","",""
"326","arrows.png","38","image-keyboard-response","75","290381","0.0-32.0-7.4","","","test","uparrow","1","1","FALSE","FALSE","true"
"null","<p style=""color: green; font-size:300%;"">correct: $7.50</p>","null","html-keyboard-response","76","291637","0.0-32.0-8.4","","","","","","","","",""
"null","<div style=""font-size:60px;""> </div>","null","html-keyboard-response","77","293194","0.0-32.0-0.5","","","fixation_1","","","","","",""
"null","","null","image-keyboard-response","78","293201","0.0-32.0-1.5","","","test","downarrow","0","1","FALSE","FALSE",""
"null","<div style=""font-size:60px;""> </div>","null","html-keyboard-response","79","293502","0.0-32.0-2.5","","","fixation_2","","","","","",""
"null","img_3.bmp","null","image-keyboard-response","80","294509","0.0-32.0-3.5","","","img_on","","","","","",""
"null","<div style=""font-size:60px;""> </div>","null","html-keyboard-response","81","294810","0.0-32.0-4.5","","","fixation_3","","","","","",""
"null","","null","html-keyboard-response","82","294816","0.0-32.0-5.5","","","test","downarrow","0","1","FALSE","FALSE",""
"null","<div style=""font-size:60px;""> </div>","null","html-keyboard-response","83","295118","0.0-32.0-6.5","","","fixation_4","","","","","",""
"406.5","arrows.png","39","image-keyboard-response","84","295525","0.0-32.0-7.5","","","test","downarrow","0","1","FALSE","FALSE","false"
"null","<p style=""color: red; font-size:300%;"">incorrect: $0</p>","null","html-keyboard-response","85","296778","0.0-32.0-8.5","","","","","","","","",""
"null","<div style=""font-size:60px;""> </div>","null","html-keyboard-response","86","298081","0.0-32.0-0.6","","","fixation_1","","","","","",""
"null","","null","image-keyboard-response","87","298088","0.0-32.0-1.6","","","test","leftarrow","0","1","FALSE","FALSE",""
"null","<div style=""font-size:60px;""> </div>","null","html-keyboard-response","88","298389","0.0-32.0-2.6","","","fixation_2","","","","","",""
"null","img_4.bmp","null","image-keyboard-response","89","299391","0.0-32.0-3.6","","","img_on","","","","","",""
"null","<div style=""font-size:60px;""> </div>","null","html-keyboard-response","90","299693","0.0-32.0-4.6","","","fixation_3","","","","","",""
"null","","null","html-keyboard-response","91","299698","0.0-32.0-5.6","","","test","leftarrow","0","1","FALSE","FALSE",""
"null","<div style=""font-size:60px;""> </div>","null","html-keyboard-response","92","300000","0.0-32.0-6.6","","","fixation_4","","","","","",""
"261.2000000476837","arrows.png","39","image-keyboard-response","93","300261","0.0-32.0-7.6","","","test","leftarrow","0","1","FALSE","FALSE","false"
"null","<p style=""color: red; font-size:300%;"">incorrect: $0</p>","null","html-keyboard-response","94","301514","0.0-32.0-8.6","","","","","","","","",""
"null","<div style=""font-size:60px;""> </div>","null","html-keyboard-response","95","302566","0.0-32.0-0.7","","","fixation_1","","","","","",""
"null","","null","image-keyboard-response","96","302571","0.0-32.0-1.7","","","test","rightarrow","1","1","FALSE","FALSE",""
"null","<div style=""font-size:60px;""> </div>","null","html-keyboard-response","97","302872","0.0-32.0-2.7","","","fixation_2","","","","","",""
"null","img_2.bmp","null","image-keyboard-response","98","303874","0.0-32.0-3.7","","","img_on","","","","","",""
"null","<div style=""font-size:60px;""> </div>","null","html-keyboard-response","99","304175","0.0-32.0-4.7","","","fixation_3","","","","","",""
"null","","null","html-keyboard-response","100","304181","0.0-32.0-5.7","","","test","rightarrow","1","1","FALSE","FALSE",""
"null","<div style=""font-size:60px;""> </div>","null","html-keyboard-response","101","304483","0.0-32.0-6.7","","","fixation_4","","","","","",""
"256.7999999523163","arrows.png","39","image-keyboard-response","102","304741","0.0-32.0-7.7","","","test","rightarrow","1","1","FALSE","FALSE","true"
"null","<p style=""color: green; font-size:300%;"">correct: $7.50</p>","null","html-keyboard-response","103","305993","0.0-32.0-8.7","","","","","","","","",""
"null","<div style=""font-size:60px;""> </div>","null","html-keyboard-response","104","307549","0.0-32.0-0.8","","","fixation_1","","","","","",""
"null","","null","image-keyboard-response","105","307555","0.0-32.0-1.8","","","test","downarrow","0","1","FALSE","FALSE",""
"null","<div style=""font-size:60px;""> </div>","null","html-keyboard-response","106","307856","0.0-32.0-2.8","","","fixation_2","","","","","",""
"null","img_3.bmp","null","image-keyboard-response","107","308858","0.0-32.0-3.8","","","img_on","","","","","",""
"null","<div style=""font-size:60px;""> </div>","null","html-keyboard-response","108","309159","0.0-32.0-4.8","","","fixation_3","","","","","",""
"null","","null","html-keyboard-response","109","309164","0.0-32.0-5.8","","","test","downarrow","0","1","FALSE","FALSE",""
"null","<div style=""font-size:60px;""> </div>","null","html-keyboard-response","110","309466","0.0-32.0-6.8","","","fixation_4","","","","","",""
"226.5","arrows.png","38","image-keyboard-response","111","309693","0.0-32.0-7.8","","","test","downarrow","0","1","FALSE","FALSE","false"
"null","<p style=""color: red; font-size:300%;"">incorrect: $0</p>","null","html-keyboard-response","112","310947","0.0-32.0-8.8","","","","","","","","",""
"null","<div style=""font-size:60px;""> </div>","null","html-keyboard-response","113","312265","0.0-32.0-0.9","","","fixation_1","","","","","",""
"null","","null","image-keyboard-response","114","312272","0.0-32.0-1.9","","","test","leftarrow","0","1","FALSE","FALSE",""
"null","<div style=""font-size:60px;""> </div>","null","html-keyboard-response","115","312576","0.0-32.0-2.9","","","fixation_2","","","","","",""
"null","img_4.bmp","null","image-keyboard-response","116","313578","0.0-32.0-3.9","","","img_on","","","","","",""
"null","<div style=""font-size:60px;""> </div>","null","html-keyboard-response","117","313880","0.0-32.0-4.9","","","fixation_3","","","","","",""
"null","","null","html-keyboard-response","118","313886","0.0-32.0-5.9","","","test","leftarrow","0","1","FALSE","FALSE",""
"null","<div style=""font-size:60px;""> </div>","null","html-keyboard-response","119","314187","0.0-32.0-6.9","","","fixation_4","","","","","",""
"345.39999997615814","arrows.png","39","image-keyboard-response","120","314533","0.0-32.0-7.9","","","test","leftarrow","0","1","FALSE","FALSE","false"
"null","<p style=""color: red; font-size:300%;"">incorrect: $0</p>","null","html-keyboard-response","121","315785","0.0-32.0-8.9","","","","","","","","",""
"null","<div style=""font-size:60px;""> </div>","null","html-keyboard-response","122","316588","0.0-32.0-0.10","","","fixation_1","","","","","",""
"null","","null","image-keyboard-response","123","316594","0.0-32.0-1.10","","","test","rightarrow","1","1","FALSE","FALSE",""
"null","<div style=""font-size:60px;""> </div>","null","html-keyboard-response","124","316895","0.0-32.0-2.10","","","fixation_2","","","","","",""
"null","img_2.bmp","null","image-keyboard-response","125","317897","0.0-32.0-3.10","","","img_on","","","","","",""
"null","<div style=""font-size:60px;""> </div>","null","html-keyboard-response","126","318200","0.0-32.0-4.10","","","fixation_3","","","","","",""
"null","","null","html-keyboard-response","127","318206","0.0-32.0-5.10","","","test","rightarrow","1","1","FALSE","FALSE",""
"null","<div style=""font-size:60px;""> </div>","null","html-keyboard-response","128","318519","0.0-32.0-6.10","","","fixation_4","","","","","",""
"508.90000009536743","arrows.png","40","image-keyboard-response","129","319029","0.0-32.0-7.10","","","test","rightarrow","1","1","FALSE","FALSE","false"
"null","<p style=""color: red; font-size:300%;"">incorrect: $0</p>","null","html-keyboard-response","130","320282","0.0-32.0-8.10","","","","","","","","",""
"null","<div style=""font-size:60px;""> </div>","null","html-keyboard-response","131","321584","0.0-32.0-0.11","","","fixation_1","","","","","",""
"null","","null","image-keyboard-response","132","321590","0.0-32.0-1.11","","","test","uparrow","1","1","FALSE","FALSE",""
"null","<div style=""font-size:60px;""> </div>","null","html-keyboard-response","133","321892","0.0-32.0-2.11","","","fixation_2","","","","","",""
"null","img_1.bmp","null","image-keyboard-response","134","322893","0.0-32.0-3.11","","","img_on","","","","","",""
"null","<div style=""font-size:60px;""> </div>","null","html-keyboard-response","135","323195","0.0-32.0-4.11","","","fixation_3","","","","","",""
"null","","null","html-keyboard-response","136","323201","0.0-32.0-5.11","","","test","uparrow","1","1","FALSE","FALSE",""
"null","<div style=""font-size:60px;""> </div>","null","html-keyboard-response","137","323502","0.0-32.0-6.11","","","fixation_4","","","","","",""
"237.59999990463257","arrows.png","38","image-keyboard-response","138","323740","0.0-32.0-7.11","","","test","uparrow","1","1","FALSE","FALSE","true"
"null","<p style=""color: green; font-size:300%;"">correct: $7.50</p>","null","html-keyboard-response","139","325009","0.0-32.0-8.11","","","","","","","","",""
"null","<div style=""font-size:60px;""> </div>","null","html-keyboard-response","140","326312","0.0-32.0-0.12","","","fixation_1","","","","","",""
"null","","null","image-keyboard-response","141","326317","0.0-32.0-1.12","","","test","leftarrow","0","1","FALSE","FALSE",""
"null","<div style=""font-size:60px;""> </div>","null","html-keyboard-response","142","326619","0.0-32.0-2.12","","","fixation_2","","","","","",""
"null","img_4.bmp","null","image-keyboard-response","143","327620","0.0-32.0-3.12","","","img_on","","","","","",""
"null","<div style=""font-size:60px;""> </div>","null","html-keyboard-response","144","327945","0.0-32.0-4.12","","","fixation_3","","","","","",""
"null","","null","html-keyboard-response","145","327951","0.0-32.0-5.12","","","test","leftarrow","0","1","FALSE","FALSE",""
"null","<div style=""font-size:60px;""> </div>","null","html-keyboard-response","146","328253","0.0-32.0-6.12","","","fixation_4","","","","","",""
"287.2000000476837","arrows.png","37","image-keyboard-response","147","328541","0.0-32.0-7.12","","","test","leftarrow","0","1","FALSE","FALSE","true"
"null","<p style=""color: green; font-size:300%;"">correct: $2.50</p>","null","html-keyboard-response","148","329796","0.0-32.0-8.12","","","","","","","","",""
"null","<div style=""font-size:60px;""> </div>","null","html-keyboard-response","149","330348","0.0-32.0-0.13","","","fixation_1","","","","","",""
"null","","null","image-keyboard-response","150","330354","0.0-32.0-1.13","","","test","uparrow","1","1","FALSE","FALSE",""
"null","<div style=""font-size:60px;""> </div>","null","html-keyboard-response","151","330661","0.0-32.0-2.13","","","fixation_2","","","","","",""
"null","img_1.bmp","null","image-keyboard-response","152","331676","0.0-32.0-3.13","","","img_on","","","","","",""
"null","<div style=""font-size:60px;""> </div>","null","html-keyboard-response","153","331978","0.0-32.0-4.13","","","fixation_3","","","","","",""
"null","","null","html-keyboard-response","154","331984","0.0-32.0-5.13","","","test","uparrow","1","1","FALSE","FALSE",""
"null","<div style=""font-size:60px;""> </div>","null","html-keyboard-response","155","332285","0.0-32.0-6.13","","","fixation_4","","","","","",""
"182.39999997615814","arrows.png","38","image-keyboard-response","156","332468","0.0-32.0-7.13","","","test","uparrow","1","1","FALSE","FALSE","true"
"null","<p style=""color: green; font-size:300%;"">correct: $7.50</p>","null","html-keyboard-response","157","333732","0.0-32.0-8.13","","","","","","","","",""
"null","<div style=""font-size:60px;""> </div>","null","html-keyboard-response","158","334537","0.0-32.0-0.14","","","fixation_1","","","","","",""
"null","","null","image-keyboard-response","159","334542","0.0-32.0-1.14","","","test","downarrow","0","1","FALSE","FALSE",""
"null","<div style=""font-size:60px;""> </div>","null","html-keyboard-response","160","334844","0.0-32.0-2.14","","","fixation_2","","","","","",""
"null","img_3.bmp","null","image-keyboard-response","161","335853","0.0-32.0-3.14","","","img_on","","","","","",""
"null","<div style=""font-size:60px;""> </div>","null","html-keyboard-response","162","336159","0.0-32.0-4.14","","","fixation_3","","","","","",""
"null","","null","html-keyboard-response","163","336171","0.0-32.0-5.14","","","test","downarrow","0","1","FALSE","FALSE",""
"null","<div style=""font-size:60px;""> </div>","null","html-keyboard-response","164","336472","0.0-32.0-6.14","","","fixation_4","","","","","",""
"259.8000000715256","arrows.png","39","image-keyboard-response","165","336733","0.0-32.0-7.14","","","test","downarrow","0","1","FALSE","FALSE","false"
"null","<p style=""color: red; font-size:300%;"">incorrect: $0</p>","null","html-keyboard-response","166","337986","0.0-32.0-8.14","","","","","","","","",""
"null","<div style=""font-size:60px;""> </div>","null","html-keyboard-response","167","338789","0.0-32.0-0.15","","","fixation_1","","","","","",""
"null","","null","image-keyboard-response","168","338798","0.0-32.0-1.15","","","test","rightarrow","1","1","FALSE","FALSE",""
"null","<div style=""font-size:60px;""> </div>","null","html-keyboard-response","169","339099","0.0-32.0-2.15","","","fixation_2","","","","","",""
"null","img_2.bmp","null","image-keyboard-response","170","340101","0.0-32.0-3.15","","","img_on","","","","","",""
"null","<div style=""font-size:60px;""> </div>","null","html-keyboard-response","171","340408","0.0-32.0-4.15","","","fixation_3","","","","","",""
"null","","null","html-keyboard-response","172","340431","0.0-32.0-5.15","","","test","rightarrow","1","1","FALSE","FALSE",""
"null","<div style=""font-size:60px;""> </div>","null","html-keyboard-response","173","340733","0.0-32.0-6.15","","","fixation_4","","","","","",""
"223.30000007152557","arrows.png","37","image-keyboard-response","174","340957","0.0-32.0-7.15","","","test","rightarrow","1","1","FALSE","FALSE","false"
"null","<p style=""color: red; font-size:300%;"">incorrect: $0</p>","null","html-keyboard-response","175","342215","0.0-32.0-8.15","","","","","","","","",""
"null","<div style=""font-size:60px;""> </div>","null","html-keyboard-response","176","343767","0.0-32.0-0.16","","","fixation_1","","","","","",""
"null","","null","image-keyboard-response","177","343773","0.0-32.0-1.16","","","test","leftarrow","0","1","FALSE","FALSE",""
"null","<div style=""font-size:60px;""> </div>","null","html-keyboard-response","178","344077","0.0-32.0-2.16","","","fixation_2","","","","","",""
"null","img_4.bmp","null","image-keyboard-response","179","345078","0.0-32.0-3.16","","","img_on","","","","","",""
"null","<div style=""font-size:60px;""> </div>","null","html-keyboard-response","180","345379","0.0-32.0-4.16","","","fixation_3","","","","","",""
"null","","null","html-keyboard-response","181","345385","0.0-32.0-5.16","","","test","leftarrow","0","1","FALSE","FALSE",""
"null","<div style=""font-size:60px;""> </div>","null","html-keyboard-response","182","345687","0.0-32.0-6.16","","","fixation_4","","","","","",""
"564.9000000953674","arrows.png","37","image-keyboard-response","183","346252","0.0-32.0-7.16","","","test","leftarrow","0","1","FALSE","FALSE","true"
"null","<p style=""color: green; font-size:300%;"">correct: $2.50</p>","null","html-keyboard-response","184","347506","0.0-32.0-8.16","","","","","","","","",""
"null","<div style=""font-size:60px;""> </div>","null","html-keyboard-response","185","349060","0.0-32.0-0.17","","","fixation_1","","","","","",""
"null","","null","image-keyboard-response","186","349066","0.0-32.0-1.17","","","test","uparrow","1","1","FALSE","FALSE",""
"null","<div style=""font-size:60px;""> </div>","null","html-keyboard-response","187","349378","0.0-32.0-2.17","","","fixation_2","","","","","",""
"null","img_1.bmp","null","image-keyboard-response","188","350380","0.0-32.0-3.17","","","img_on","","","","","",""
"null","<div style=""font-size:60px;""> </div>","null","html-keyboard-response","189","350681","0.0-32.0-4.17","","","fixation_3","","","","","",""
"null","","null","html-keyboard-response","190","350687","0.0-32.0-5.17","","","test","uparrow","1","1","FALSE","FALSE",""
"null","<div style=""font-size:60px;""> </div>","null","html-keyboard-response","191","350989","0.0-32.0-6.17","","","fixation_4","","","","","",""
"216.90000009536743","arrows.png","38","image-keyboard-response","192","351206","0.0-32.0-7.17","","","test","uparrow","1","1","FALSE","FALSE","true"
"null","<p style=""color: green; font-size:300%;"">correct: $7.50</p>","null","html-keyboard-response","193","352464","0.0-32.0-8.17","","","","","","","","",""
"null","<div style=""font-size:60px;""> </div>","null","html-keyboard-response","194","353268","0.0-32.0-0.18","","","fixation_1","","","","","",""
"null","switch_cue.png","null","image-keyboard-response","195","354284","0.0-32.0-1.18","","","test","downarrow","0","1","TRUE","TRUE",""
"null","<div style=""font-size:60px;""> </div>","null","html-keyboard-response","196","354585","0.0-32.0-2.18","","","fixation_2","","","","","",""
"null","img_3.bmp","null","image-keyboard-response","197","355612","0.0-32.0-3.18","","","img_on","","","","","",""
"null","<div style=""font-size:60px;""> </div>","null","html-keyboard-response","198","355916","0.0-32.0-4.18","","","fixation_3","","","","","",""
"null","<img src=""CC1.png"" width=200 height=200/>","null","html-keyboard-response","199","356919","0.0-32.0-5.18","","","test","downarrow","0","1","TRUE","TRUE",""
"null","<div style=""font-size:60px;""> </div>","null","html-keyboard-response","200","357220","0.0-32.0-6.18","","","fixation_4","","","","","",""
"1439.8999999761581","arrows.png","38","image-keyboard-response","201","358660","0.0-32.0-7.18","","","test","downarrow","0","1","TRUE","TRUE","false"
"null","<p style=""color: red; font-size:300%;"">incorrect: $0</p>","null","html-keyboard-response","202","359914","0.0-32.0-8.18","","","","","","","","",""
"null","<div style=""font-size:60px;""> </div>","null","html-keyboard-response","203","360966","0.0-32.0-0.19","","","fixation_1","","","","","",""
"null","switch_cue.png","null","image-keyboard-response","204","361968","0.0-32.0-1.19","","","test","rightarrow","1","1","TRUE","TRUE",""
"null","<div style=""font-size:60px;""> </div>","null","html-keyboard-response","205","362269","0.0-32.0-2.19","","","fixation_2","","","","","",""
"null","img_2.bmp","null","image-keyboard-response","206","363278","0.0-32.0-3.19","","","img_on","","","","","",""
"null","<div style=""font-size:60px;""> </div>","null","html-keyboard-response","207","363580","0.0-32.0-4.19","","","fixation_3","","","","","",""
"null","<img src=""CC1.png"" width=200 height=200/>","null","html-keyboard-response","208","364582","0.0-32.0-5.19","","","test","rightarrow","1","1","TRUE","TRUE",""
"null","<div style=""font-size:60px;""> </div>","null","html-keyboard-response","209","364886","0.0-32.0-6.19","","","fixation_4","","","","","",""
"270.09999990463257","arrows.png","39","image-keyboard-response","210","365156","0.0-32.0-7.19","","","test","rightarrow","1","1","TRUE","TRUE","true"
"null","<p style=""color: green; font-size:300%;"">correct: $7.50</p>","null","html-keyboard-response","211","366410","0.0-32.0-8.19","","","","","","","","",""
"null","<div style=""font-size:60px;""> </div>","null","html-keyboard-response","212","367462","0.0-32.0-0.20","","","fixation_1","","","","","",""
"null","switch_cue.png","null","image-keyboard-response","213","368463","0.0-32.0-1.20","","","test","rightarrow","0","2","TRUE","TRUE",""
"null","<div style=""font-size:60px;""> </div>","null","html-keyboard-response","214","368766","0.0-32.0-2.20","","","fixation_2","","","","","",""
"null","img_1.bmp","null","image-keyboard-response","215","369768","0.0-32.0-3.20","","","img_on","","","","","",""
"null","<div style=""font-size:60px;""> </div>","null","html-keyboard-response","216","370069","0.0-32.0-4.20","","","fixation_3","","","","","",""
"null","<img src=""CC2.png"" width=200 height=200/>","null","html-keyboard-response","217","371072","0.0-32.0-5.20","","","test","rightarrow","0","2","TRUE","TRUE",""
"null","<div style=""font-size:60px;""> </div>","null","html-keyboard-response","218","371374","0.0-32.0-6.20","","","fixation_4","","","","","",""
"237.5","arrows.png","37","image-keyboard-response","219","371612","0.0-32.0-7.20","","","test","rightarrow","0","2","TRUE","TRUE","false"
"null","<p style=""color: red; font-size:300%;"">incorrect: $0</p>","null","html-keyboard-response","220","372868","0.0-32.0-8.20","","","","","","","","",""
"null","<div style=""font-size:60px;""> </div>","null","html-keyboard-response","221","373421","0.0-32.0-0.21","","","fixation_1","","","","","",""
"null","","null","image-keyboard-response","222","373426","0.0-32.0-1.21","","","test","uparrow","0","2","TRUE","FALSE",""
"null","<div style=""font-size:60px;""> </div>","null","html-keyboard-response","223","373728","0.0-32.0-2.21","","","fixation_2","","","","","",""
"null","img_4.bmp","null","image-keyboard-response","224","374731","0.0-32.0-3.21","","","img_on","","","","","",""
"null","<div style=""font-size:60px;""> </div>","null","html-keyboard-response","225","375032","0.0-32.0-4.21","","","fixation_3","","","","","",""
"null","<img src=""CC2.png"" width=200 height=200/>","null","html-keyboard-response","226","376033","0.0-32.0-5.21","","","test","uparrow","0","2","TRUE","FALSE",""
"null","<div style=""font-size:60px;""> </div>","null","html-keyboard-response","227","376335","0.0-32.0-6.21","","","fixation_4","","","","","",""
"244.80000007152557","arrows.png","39","image-keyboard-response","228","376580","0.0-32.0-7.21","","","test","uparrow","0","2","TRUE","FALSE","false"
"null","<p style=""color: red; font-size:300%;"">incorrect: $0</p>","null","html-keyboard-response","229","377834","0.0-32.0-8.21","","","","","","","","",""
"null","<div style=""font-size:60px;""> </div>","null","html-keyboard-response","230","378887","0.0-32.0-0.22","","","fixation_1","","","","","",""
"null","","null","image-keyboard-response","231","378893","0.0-32.0-1.22","","","test","leftarrow","1","2","TRUE","FALSE",""
"null","<div style=""font-size:60px;""> </div>","null","html-keyboard-response","232","379194","0.0-32.0-2.22","","","fixation_2","","","","","",""
"null","img_3.bmp","null","image-keyboard-response","233","380195","0.0-32.0-3.22","","","img_on","","","","","",""
"null","<div style=""font-size:60px;""> </div>","null","html-keyboard-response","234","380497","0.0-32.0-4.22","","","fixation_3","","","","","",""
"null","<img src=""CC2.png"" width=200 height=200/>","null","html-keyboard-response","235","381499","0.0-32.0-5.22","","","test","leftarrow","1","2","TRUE","FALSE",""
"null","<div style=""font-size:60px;""> </div>","null","html-keyboard-response","236","381800","0.0-32.0-6.22","","","fixation_4","","","","","",""
"645.2999999523163","arrows.png","40","image-keyboard-response","237","382447","0.0-32.0-7.22","","","test","leftarrow","1","2","TRUE","FALSE","false"
"null","<p style=""color: red; font-size:300%;"">incorrect: $0</p>","null","html-keyboard-response","238","383699","0.0-32.0-8.22","","","","","","","","",""
"null","<div style=""font-size:60px;""> </div>","null","html-keyboard-response","239","384751","0.0-32.0-0.23","","","fixation_1","","","","","",""
"null","","null","image-keyboard-response","240","384756","0.0-32.0-1.23","","","test","downarrow","1","2","TRUE","FALSE",""
"null","<div style=""font-size:60px;""> </div>","null","html-keyboard-response","241","385058","0.0-32.0-2.23","","","fixation_2","","","","","",""
"null","img_2.bmp","null","image-keyboard-response","242","386059","0.0-32.0-3.23","","","img_on","","","","","",""
"null","<div style=""font-size:60px;""> </div>","null","html-keyboard-response","243","386362","0.0-32.0-4.23","","","fixation_3","","","","","",""
"null","<img src=""CC2.png"" width=200 height=200/>","null","html-keyboard-response","244","387365","0.0-32.0-5.23","","","test","downarrow","1","2","TRUE","FALSE",""
"null","<div style=""font-size:60px;""> </div>","null","html-keyboard-response","245","387667","0.0-32.0-6.23","","","fixation_4","","","","","",""
"729","arrows.png","38","image-keyboard-response","246","388397","0.0-32.0-7.23","","","test","downarrow","1","2","TRUE","FALSE","false"
"null","<p style=""color: red; font-size:300%;"">incorrect: $0</p>","null","html-keyboard-response","247","389649","0.0-32.0-8.23","","","","","","","","",""
"null","<div style=""font-size:60px;""> </div>","null","html-keyboard-response","248","390951","0.0-32.0-0.24","","","fixation_1","","","","","",""
"null","","null","image-keyboard-response","249","390957","0.0-32.0-1.24","","","test","downarrow","1","2","FALSE","FALSE",""
"null","<div style=""font-size:60px;""> </div>","null","html-keyboard-response","250","391258","0.0-32.0-2.24","","","fixation_2","","","","","",""
"null","img_2.bmp","null","image-keyboard-response","251","392260","0.0-32.0-3.24","","","img_on","","","","","",""
"null","<div style=""font-size:60px;""> </div>","null","html-keyboard-response","252","392562","0.0-32.0-4.24","","","fixation_3","","","","","",""
"null","","null","html-keyboard-response","253","392569","0.0-32.0-5.24","","","test","downarrow","1","2","FALSE","FALSE",""
"null","<div style=""font-size:60px;""> </div>","null","html-keyboard-response","254","392876","0.0-32.0-6.24","","","fixation_4","","","","","",""
"319.3000000715256","arrows.png","39","image-keyboard-response","255","393197","0.0-32.0-7.24","","","test","downarrow","1","2","FALSE","FALSE","false"
"null","<p style=""color: red; font-size:300%;"">incorrect: $0</p>","null","html-keyboard-response","256","394450","0.0-32.0-8.24","","","","","","","","",""
"null","<div style=""font-size:60px;""> </div>","null","html-keyboard-response","257","395252","0.0-32.0-0.25","","","fixation_1","","","","","",""
"null","","null","image-keyboard-response","258","395258","0.0-32.0-1.25","","","test","rightarrow","0","2","FALSE","FALSE",""
"null","<div style=""font-size:60px;""> </div>","null","html-keyboard-response","259","395559","0.0-32.0-2.25","","","fixation_2","","","","","",""
"null","img_1.bmp","null","image-keyboard-response","260","396561","0.0-32.0-3.25","","","img_on","","","","","",""
"null","<div style=""font-size:60px;""> </div>","null","html-keyboard-response","261","396863","0.0-32.0-4.25","","","fixation_3","","","","","",""
"null","","null","html-keyboard-response","262","396868","0.0-32.0-5.25","","","test","rightarrow","0","2","FALSE","FALSE",""
"null","<div style=""font-size:60px;""> </div>","null","html-keyboard-response","263","397169","0.0-32.0-6.25","","","fixation_4","","","","","",""
"292.5","arrows.png","38","image-keyboard-response","264","397462","0.0-32.0-7.25","","","test","rightarrow","0","2","FALSE","FALSE","false"
"null","<p style=""color: red; font-size:300%;"">incorrect: $0</p>","null","html-keyboard-response","265","398722","0.0-32.0-8.25","","","","","","","","",""
"null","<div style=""font-size:60px;""> </div>","null","html-keyboard-response","266","399795","0.0-32.0-0.26","","","fixation_1","","","","","",""
"null","","null","image-keyboard-response","267","399807","0.0-32.0-1.26","","","test","uparrow","0","2","FALSE","FALSE",""
"null","<div style=""font-size:60px;""> </div>","null","html-keyboard-response","268","400108","0.0-32.0-2.26","","","fixation_2","","","","","",""
"null","img_4.bmp","null","image-keyboard-response","269","401110","0.0-32.0-3.26","","","img_on","","","","","",""
"null","<div style=""font-size:60px;""> </div>","null","html-keyboard-response","270","401412","0.0-32.0-4.26","","","fixation_3","","","","","",""
"null","","null","html-keyboard-response","271","401417","0.0-32.0-5.26","","","test","uparrow","0","2","FALSE","FALSE",""
"null","<div style=""font-size:60px;""> </div>","null","html-keyboard-response","272","401719","0.0-32.0-6.26","","","fixation_4","","","","","",""
"293.60000002384186","arrows.png","38","image-keyboard-response","273","402013","0.0-32.0-7.26","","","test","uparrow","0","2","FALSE","FALSE","true"
"null","<p style=""color: green; font-size:300%;"">correct: $2.50</p>","null","html-keyboard-response","274","403266","0.0-32.0-8.26","","","","","","","","",""
"null","<div style=""font-size:60px;""> </div>","null","html-keyboard-response","275","403819","0.0-32.0-0.27","","","fixation_1","","","","","",""
"null","","null","image-keyboard-response","276","403825","0.0-32.0-1.27","","","test","leftarrow","1","2","FALSE","FALSE",""
"null","<div style=""font-size:60px;""> </div>","null","html-keyboard-response","277","404126","0.0-32.0-2.27","","","fixation_2","","","","","",""
"null","img_3.bmp","null","image-keyboard-response","278","405129","0.0-32.0-3.27","","","img_on","","","","","",""
"null","<div style=""font-size:60px;""> </div>","null","html-keyboard-response","279","405431","0.0-32.0-4.27","","","fixation_3","","","","","",""
"null","","null","html-keyboard-response","280","405437","0.0-32.0-5.27","","","test","leftarrow","1","2","FALSE","FALSE",""
"null","<div style=""font-size:60px;""> </div>","null","html-keyboard-response","281","405746","0.0-32.0-6.27","","","fixation_4","","","","","",""
"273.10000002384186","arrows.png","37","image-keyboard-response","282","406021","0.0-32.0-7.27","","","test","leftarrow","1","2","FALSE","FALSE","true"
"null","<p style=""color: green; font-size:300%;"">correct: $7.50</p>","null","html-keyboard-response","283","407274","0.0-32.0-8.27","","","","","","","","",""
"null","<div style=""font-size:60px;""> </div>","null","html-keyboard-response","284","408576","0.0-32.0-0.28","","","fixation_1","","","","","",""
"null","","null","image-keyboard-response","285","408584","0.0-32.0-1.28","","","test","uparrow","0","2","FALSE","FALSE",""
"null","<div style=""font-size:60px;""> </div>","null","html-keyboard-response","286","408886","0.0-32.0-2.28","","","fixation_2","","","","","",""
"null","img_4.bmp","null","image-keyboard-response","287","409888","0.0-32.0-3.28","","","img_on","","","","","",""
"null","<div style=""font-size:60px;""> </div>","null","html-keyboard-response","288","410190","0.0-32.0-4.28","","","fixation_3","","","","","",""
"null","","null","html-keyboard-response","289","410196","0.0-32.0-5.28","","","test","uparrow","0","2","FALSE","FALSE",""
"null","<div style=""font-size:60px;""> </div>","null","html-keyboard-response","290","410497","0.0-32.0-6.28","","","fixation_4","","","","","",""
"187.90000009536743","arrows.png","38","image-keyboard-response","291","410686","0.0-32.0-7.28","","","test","uparrow","0","2","FALSE","FALSE","true"
"null","<p style=""color: green; font-size:300%;"">correct: $2.50</p>","null","html-keyboard-response","292","411940","0.0-32.0-8.28","","","","","","","","",""
"null","<div style=""font-size:60px;""> </div>","null","html-keyboard-response","293","412993","0.0-32.0-0.29","","","fixation_1","","","","","",""
"null","","null","image-keyboard-response","294","413000","0.0-32.0-1.29","","","test","downarrow","1","2","FALSE","FALSE",""
"null","<div style=""font-size:60px;""> </div>","null","html-keyboard-response","295","413301","0.0-32.0-2.29","","","fixation_2","","","","","",""
"null","img_2.bmp","null","image-keyboard-response","296","414303","0.0-32.0-3.29","","","img_on","","","","","",""
"null","<div style=""font-size:60px;""> </div>","null","html-keyboard-response","297","414612","0.0-32.0-4.29","","","fixation_3","","","","","",""
"null","","null","html-keyboard-response","298","414619","0.0-32.0-5.29","","","test","downarrow","1","2","FALSE","FALSE",""
"null","<div style=""font-size:60px;""> </div>","null","html-keyboard-response","299","414921","0.0-32.0-6.29","","","fixation_4","","","","","",""
"179.5","arrows.png","39","image-keyboard-response","300","415101","0.0-32.0-7.29","","","test","downarrow","1","2","FALSE","FALSE","false"
"null","<p style=""color: red; font-size:300%;"">incorrect: $0</p>","null","html-keyboard-response","301","416367","0.0-32.0-8.29","","","","","","","","",""
"null","<div style=""font-size:60px;""> </div>","null","html-keyboard-response","302","417920","0.0-32.0-0.30","","","fixation_1","","","","","",""
"null","","null","image-keyboard-response","303","417926","0.0-32.0-1.30","","","test","rightarrow","0","2","FALSE","FALSE",""
"null","<div style=""font-size:60px;""> </div>","null","html-keyboard-response","304","418227","0.0-32.0-2.30","","","fixation_2","","","","","",""
"null","img_1.bmp","null","image-keyboard-response","305","419228","0.0-32.0-3.30","","","img_on","","","","","",""
"null","<div style=""font-size:60px;""> </div>","null","html-keyboard-response","306","419529","0.0-32.0-4.30","","","fixation_3","","","","","",""
"null","","null","html-keyboard-response","307","419534","0.0-32.0-5.30","","","test","rightarrow","0","2","FALSE","FALSE",""
"null","<div style=""font-size:60px;""> </div>","null","html-keyboard-response","308","419836","0.0-32.0-6.30","","","fixation_4","","","","","",""
"256.7000000476837","arrows.png","39","image-keyboard-response","309","420093","0.0-32.0-7.30","","","test","rightarrow","0","2","FALSE","FALSE","true"
"null","<p style=""color: green; font-size:300%;"">correct: $2.50</p>","null","html-keyboard-response","310","421346","0.0-32.0-8.30","","","","","","","","",""
"null","<div style=""font-size:60px;""> </div>","null","html-keyboard-response","311","421916","0.0-32.0-0.31","","","fixation_1","","","","","",""
"null","","null","image-keyboard-response","312","421922","0.0-32.0-1.31","","","test","leftarrow","1","2","FALSE","FALSE",""
"null","<div style=""font-size:60px;""> </div>","null","html-keyboard-response","313","422224","0.0-32.0-2.31","","","fixation_2","","","","","",""
"null","img_3.bmp","null","image-keyboard-response","314","423226","0.0-32.0-3.31","","","img_on","","","","","",""
"null","<div style=""font-size:60px;""> </div>","null","html-keyboard-response","315","423527","0.0-32.0-4.31","","","fixation_3","","","","","",""
"null","","null","html-keyboard-response","316","423534","0.0-32.0-5.31","","","test","leftarrow","1","2","FALSE","FALSE",""
"null","<div style=""font-size:60px;""> </div>","null","html-keyboard-response","317","423835","0.0-32.0-6.31","","","fixation_4","","","","","",""
"330.6999999284744","arrows.png","37","image-keyboard-response","318","424167","0.0-32.0-7.31","","","test","leftarrow","1","2","FALSE","FALSE","true"
"null","<p style=""color: green; font-size:300%;"">correct: $7.50</p>","null","html-keyboard-response","319","425418","0.0-32.0-8.31","","","","","","","","",""
"null","<div style=""font-size:60px;""> </div>","null","html-keyboard-response","320","425971","0.0-32.0-0.32","","","fixation_1","","","","","",""
"null","","null","image-keyboard-response","321","425976","0.0-32.0-1.32","","","test","rightarrow","0","2","FALSE","FALSE",""
"null","<div style=""font-size:60px;""> </div>","null","html-keyboard-response","322","426277","0.0-32.0-2.32","","","fixation_2","","","","","",""
"null","img_1.bmp","null","image-keyboard-response","323","427280","0.0-32.0-3.32","","","img_on","","","","","",""
"null","<div style=""font-size:60px;""> </div>","null","html-keyboard-response","324","427582","0.0-32.0-4.32","","","fixation_3","","","","","",""
"null","","null","html-keyboard-response","325","427588","0.0-32.0-5.32","","","test","rightarrow","0","2","FALSE","FALSE",""
"null","<div style=""font-size:60px;""> </div>","null","html-keyboard-response","326","427892","0.0-32.0-6.32","","","fixation_4","","","","","",""
"605.6999999284744","arrows.png","39","image-keyboard-response","327","428501","0.0-32.0-7.32","","","test","rightarrow","0","2","FALSE","FALSE","true"
"null","<p style=""color: green; font-size:300%;"">correct: $2.50</p>","null","html-keyboard-response","328","429753","0.0-32.0-8.32","","","","","","","","",""
"null","<div style=""font-size:60px;""> </div>","null","html-keyboard-response","329","431056","0.0-32.0-0.33","","","fixation_1","","","","","",""
"null","","null","image-keyboard-response","330","431062","0.0-32.0-1.33","","","test","uparrow","0","2","FALSE","FALSE",""
"null","<div style=""font-size:60px;""> </div>","null","html-keyboard-response","331","431363","0.0-32.0-2.33","","","fixation_2","","","","","",""
"null","img_4.bmp","null","image-keyboard-response","332","432365","0.0-32.0-3.33","","","img_on","","","","","",""
"null","<div style=""font-size:60px;""> </div>","null","html-keyboard-response","333","432666","0.0-32.0-4.33","","","fixation_3","","","","","",""
"null","","null","html-keyboard-response","334","432672","0.0-32.0-5.33","","","test","uparrow","0","2","FALSE","FALSE",""
"null","<div style=""font-size:60px;""> </div>","null","html-keyboard-response","335","432974","0.0-32.0-6.33","","","fixation_4","","","","","",""
"206.70000004768372","arrows.png","38","image-keyboard-response","336","433181","0.0-32.0-7.33","","","test","uparrow","0","2","FALSE","FALSE","true"
"null","<p style=""color: green; font-size:300%;"">correct: $2.50</p>","null","html-keyboard-response","337","434433","0.0-32.0-8.33","","","","","","","","",""
"null","<div style=""font-size:60px;""> </div>","null","html-keyboard-response","338","435986","0.0-32.0-0.34","","","fixation_1","","","","","",""
"null","","null","image-keyboard-response","339","435993","0.0-32.0-1.34","","","test","downarrow","1","2","FALSE","FALSE",""
"null","<div style=""font-size:60px;""> </div>","null","html-keyboard-response","340","436294","0.0-32.0-2.34","","","fixation_2","","","","","",""
"null","img_2.bmp","null","image-keyboard-response","341","437296","0.0-32.0-3.34","","","img_on","","","","","",""
"null","<div style=""font-size:60px;""> </div>","null","html-keyboard-response","342","437597","0.0-32.0-4.34","","","fixation_3","","","","","",""
"null","","null","html-keyboard-response","343","437603","0.0-32.0-5.34","","","test","downarrow","1","2","FALSE","FALSE",""
"null","<div style=""font-size:60px;""> </div>","null","html-keyboard-response","344","437905","0.0-32.0-6.34","","","fixation_4","","","","","",""
"299.39999997615814","arrows.png","40","image-keyboard-response","345","438207","0.0-32.0-7.34","","","test","downarrow","1","2","FALSE","FALSE","true"
"null","<p style=""color: green; font-size:300%;"">correct: $7.50</p>","null","html-keyboard-response","346","439459","0.0-32.0-8.34","","","","","","","","",""
"null","<div style=""font-size:60px;""> </div>","null","html-keyboard-response","347","440011","0.0-32.0-0.35","","","fixation_1","","","","","",""
"null","","null","image-keyboard-response","348","440017","0.0-32.0-1.35","","","test","leftarrow","1","2","FALSE","FALSE",""
"null","<div style=""font-size:60px;""> </div>","null","html-keyboard-response","349","440319","0.0-32.0-2.35","","","fixation_2","","","","","",""
"null","img_3.bmp","null","image-keyboard-response","350","441320","0.0-32.0-3.35","","","img_on","","","","","",""
"null","<div style=""font-size:60px;""> </div>","null","html-keyboard-response","351","441621","0.0-32.0-4.35","","","fixation_3","","","","","",""
"null","","null","html-keyboard-response","352","441629","0.0-32.0-5.35","","","test","leftarrow","1","2","FALSE","FALSE",""
"null","<div style=""font-size:60px;""> </div>","null","html-keyboard-response","353","441930","0.0-32.0-6.35","","","fixation_4","","","","","",""
"281.5","arrows.png","37","image-keyboard-response","354","442212","0.0-32.0-7.35","","","test","leftarrow","1","2","FALSE","FALSE","true"
"null","<p style=""color: green; font-size:300%;"">correct: $7.50</p>","null","html-keyboard-response","355","443465","0.0-32.0-8.35","","","","","","","","",""
"null","<div style=""font-size:60px;""> </div>","null","html-keyboard-response","356","444518","0.0-32.0-0.36","","","fixation_1","","","","","",""
"null","","null","image-keyboard-response","357","444524","0.0-32.0-1.36","","","test","rightarrow","0","2","FALSE","FALSE",""
"null","<div style=""font-size:60px;""> </div>","null","html-keyboard-response","358","444826","0.0-32.0-2.36","","","fixation_2","","","","","",""
"null","img_1.bmp","null","image-keyboard-response","359","445827","0.0-32.0-3.36","","","img_on","","","","","",""
"null","<div style=""font-size:60px;""> </div>","null","html-keyboard-response","360","446128","0.0-32.0-4.36","","","fixation_3","","","","","",""
"null","","null","html-keyboard-response","361","446134","0.0-32.0-5.36","","","test","rightarrow","0","2","FALSE","FALSE",""
"null","<div style=""font-size:60px;""> </div>","null","html-keyboard-response","362","446436","0.0-32.0-6.36","","","fixation_4","","","","","",""
"248.60000002384186","arrows.png","39","image-keyboard-response","363","446686","0.0-32.0-7.36","","","test","rightarrow","0","2","FALSE","FALSE","true"
"null","<p style=""color: green; font-size:300%;"">correct: $2.50</p>","null","html-keyboard-response","364","447939","0.0-32.0-8.36","","","","","","","","",""
"null","<div style=""font-size:60px;""> </div>","null","html-keyboard-response","365","449242","0.0-32.0-0.37","","","fixation_1","","","","","",""
"null","switch_cue.png","null","image-keyboard-response","366","450244","0.0-32.0-1.37","","","test","downarrow","1","2","TRUE","TRUE",""
"null","<div style=""font-size:60px;""> </div>","null","html-keyboard-response","367","450547","0.0-32.0-2.37","","","fixation_2","","","","","",""
"null","img_2.bmp","null","image-keyboard-response","368","451549","0.0-32.0-3.37","","","img_on","","","","","",""
"null","<div style=""font-size:60px;""> </div>","null","html-keyboard-response","369","451850","0.0-32.0-4.37","","","fixation_3","","","","","",""
"null","<img src=""CC2.png"" width=200 height=200/>","null","html-keyboard-response","370","452851","0.0-32.0-5.37","","","test","downarrow","1","2","TRUE","TRUE",""
"null","<div style=""font-size:60px;""> </div>","null","html-keyboard-response","371","453154","0.0-32.0-6.37","","","fixation_4","","","","","",""
"274.2000000476837","arrows.png","40","image-keyboard-response","372","453429","0.0-32.0-7.37","","","test","downarrow","1","2","TRUE","TRUE","true"
"null","<p style=""color: green; font-size:300%;"">correct: $7.50</p>","null","html-keyboard-response","373","454683","0.0-32.0-8.37","","","","","","","","",""
"null","<div style=""font-size:60px;""> </div>","null","html-keyboard-response","374","455234","0.0-32.0-0.38","","","fixation_1","","","","","",""
"null","switch_cue.png","null","image-keyboard-response","375","456236","0.0-32.0-1.38","","","test","leftarrow","1","2","TRUE","TRUE",""
"null","<div style=""font-size:60px;""> </div>","null","html-keyboard-response","376","456546","0.0-32.0-2.38","","","fixation_2","","","","","",""
"null","img_3.bmp","null","image-keyboard-response","377","457547","0.0-32.0-3.38","","","img_on","","","","","",""
"null","<div style=""font-size:60px;""> </div>","null","html-keyboard-response","378","457849","0.0-32.0-4.38","","","fixation_3","","","","","",""
"null","<img src=""CC2.png"" width=200 height=200/>","null","html-keyboard-response","379","458850","0.0-32.0-5.38","","","test","leftarrow","1","2","TRUE","TRUE",""
"null","<div style=""font-size:60px;""> </div>","null","html-keyboard-response","380","459153","0.0-32.0-6.38","","","fixation_4","","","","","",""
"244.5","arrows.png","37","image-keyboard-response","381","459399","0.0-32.0-7.38","","","test","leftarrow","1","2","TRUE","TRUE","true"
"null","<p style=""color: green; font-size:300%;"">correct: $7.50</p>","null","html-keyboard-response","382","460668","0.0-32.0-8.38","","","","","","","","",""
"null","<div style=""font-size:60px;""> </div>","null","html-keyboard-response","383","461221","0.0-32.0-0.39","","","fixation_1","","","","","",""
"null","switch_cue.png","null","image-keyboard-response","384","462232","0.0-32.0-1.39","","","test","uparrow","0","2","TRUE","TRUE",""
"null","<div style=""font-size:60px;""> </div>","null","html-keyboard-response","385","462538","0.0-32.0-2.39","","","fixation_2","","","","","",""
"null","img_4.bmp","null","image-keyboard-response","386","463540","0.0-32.0-3.39","","","img_on","","","","","",""
"null","<div style=""font-size:60px;""> </div>","null","html-keyboard-response","387","463841","0.0-32.0-4.39","","","fixation_3","","","","","",""
"null","<img src=""CC2.png"" width=200 height=200/>","null","html-keyboard-response","388","464843","0.0-32.0-5.39","","","test","uparrow","0","2","TRUE","TRUE",""
"null","<div style=""font-size:60px;""> </div>","null","html-keyboard-response","389","465144","0.0-32.0-6.39","","","fixation_4","","","","","",""
"259.10000002384186","arrows.png","38","image-keyboard-response","390","465405","0.0-32.0-7.39","","","test","uparrow","0","2","TRUE","TRUE","true"
"null","<p style=""color: green; font-size:300%;"">correct: $2.50</p>","null","html-keyboard-response","391","466657","0.0-32.0-8.39","","","","","","","","",""
"null","<div style=""font-size:60px;""> </div>","null","html-keyboard-response","392","467210","0.0-32.0-0.40","","","fixation_1","","","","","",""
"null","switch_cue.png","null","image-keyboard-response","393","468212","0.0-32.0-1.40","","","test","rightarrow","1","1","TRUE","TRUE",""
"null","<div style=""font-size:60px;""> </div>","null","html-keyboard-response","394","468513","0.0-32.0-2.40","","","fixation_2","","","","","",""
"null","img_2.bmp","null","image-keyboard-response","395","469520","0.0-32.0-3.40","","","img_on","","","","","",""
"null","<div style=""font-size:60px;""> </div>","null","html-keyboard-response","396","469823","0.0-32.0-4.40","","","fixation_3","","","","","",""
"null","<img src=""CC1.png"" width=200 height=200/>","null","html-keyboard-response","397","470828","0.0-32.0-5.40","","","test","rightarrow","1","1","TRUE","TRUE",""
"null","<div style=""font-size:60px;""> </div>","null","html-keyboard-response","398","471129","0.0-32.0-6.40","","","fixation_4","","","","","",""
"282.7000000476837","arrows.png","38","image-keyboard-response","399","471412","0.0-32.0-7.40","","","test","rightarrow","1","1","TRUE","TRUE","false"
"null","<p style=""color: red; font-size:300%;"">incorrect: $0</p>","null","html-keyboard-response","400","472666","0.0-32.0-8.40","","","","","","","","",""
"null","<div style=""font-size:60px;""> </div>","null","html-keyboard-response","401","474219","0.0-32.0-0.41","","","fixation_1","","","","","",""
"null","","null","image-keyboard-response","402","474225","0.0-32.0-1.41","","","test","uparrow","1","1","TRUE","FALSE",""
"null","<div style=""font-size:60px;""> </div>","null","html-keyboard-response","403","474526","0.0-32.0-2.41","","","fixation_2","","","","","",""
"null","img_1.bmp","null","image-keyboard-response","404","475527","0.0-32.0-3.41","","","img_on","","","","","",""
"null","<div style=""font-size:60px;""> </div>","null","html-keyboard-response","405","475829","0.0-32.0-4.41","","","fixation_3","","","","","",""
"null","<img src=""CC1.png"" width=200 height=200/>","null","html-keyboard-response","406","476830","0.0-32.0-5.41","","","test","uparrow","1","1","TRUE","FALSE",""
"null","<div style=""font-size:60px;""> </div>","null","html-keyboard-response","407","477132","0.0-32.0-6.41","","","fixation_4","","","","","",""
"175","arrows.png","38","image-keyboard-response","408","477308","0.0-32.0-7.41","","","test","uparrow","1","1","TRUE","FALSE","true"
"null","<p style=""color: green; font-size:300%;"">correct: $7.50</p>","null","html-keyboard-response","409","478562","0.0-32.0-8.41","","","","","","","","",""
"null","<div style=""font-size:60px;""> </div>","null","html-keyboard-response","410","479117","0.0-32.0-0.42","","","fixation_1","","","","","",""
"null","","null","image-keyboard-response","411","479124","0.0-32.0-1.42","","","test","leftarrow","0","1","TRUE","FALSE",""
"null","<div style=""font-size:60px;""> </div>","null","html-keyboard-response","412","479426","0.0-32.0-2.42","","","fixation_2","","","","","",""
"null","img_4.bmp","null","image-keyboard-response","413","480428","0.0-32.0-3.42","","","img_on","","","","","",""
"null","<div style=""font-size:60px;""> </div>","null","html-keyboard-response","414","480730","0.0-32.0-4.42","","","fixation_3","","","","","",""
"null","<img src=""CC1.png"" width=200 height=200/>","null","html-keyboard-response","415","481732","0.0-32.0-5.42","","","test","leftarrow","0","1","TRUE","FALSE",""
"null","<div style=""font-size:60px;""> </div>","null","html-keyboard-response","416","482034","0.0-32.0-6.42","","","fixation_4","","","","","",""
"0.8000000715255737","arrows.png","37","image-keyboard-response","417","482036","0.0-32.0-7.42","","","test","leftarrow","0","1","TRUE","FALSE","true"
"null","<p style=""color: green; font-size:300%;"">correct: $2.50</p>","null","html-keyboard-response","418","483288","0.0-32.0-8.42","","","","","","","","",""
"null","<div style=""font-size:60px;""> </div>","null","html-keyboard-response","419","484591","0.0-32.0-0.43","","","fixation_1","","","","","",""
"null","","null","image-keyboard-response","420","484597","0.0-32.0-1.43","","","test","downarrow","0","1","TRUE","FALSE",""
"null","<div style=""font-size:60px;""> </div>","null","html-keyboard-response","421","484926","0.0-32.0-2.43","","","fixation_2","","","","","",""
"null","img_3.bmp","null","image-keyboard-response","422","485927","0.0-32.0-3.43","","","img_on","","","","","",""
"null","<div style=""font-size:60px;""> </div>","null","html-keyboard-response","423","486228","0.0-32.0-4.43","","","fixation_3","","","","","",""
"null","<img src=""CC1.png"" width=200 height=200/>","null","html-keyboard-response","424","487230","0.0-32.0-5.43","","","test","downarrow","0","1","TRUE","FALSE",""
"null","<div style=""font-size:60px;""> </div>","null","html-keyboard-response","425","487532","0.0-32.0-6.43","","","fixation_4","","","","","",""
"240","arrows.png","39","image-keyboard-response","426","487773","0.0-32.0-7.43","","","test","downarrow","0","1","TRUE","FALSE","false"
"null","<p style=""color: red; font-size:300%;"">incorrect: $0</p>","null","html-keyboard-response","427","489036","0.0-32.0-8.43","","","","","","","","",""
"null","<div style=""font-size:60px;""> </div>","null","html-keyboard-response","428","490589","0.0-32.0-0.44","","","fixation_1","","","","","",""
"null","","null","image-keyboard-response","429","490597","0.0-32.0-1.44","","","test","downarrow","0","1","FALSE","FALSE",""
"null","<div style=""font-size:60px;""> </div>","null","html-keyboard-response","430","490898","0.0-32.0-2.44","","","fixation_2","","","","","",""
"null","img_3.bmp","null","image-keyboard-response","431","491900","0.0-32.0-3.44","","","img_on","","","","","",""
"null","<div style=""font-size:60px;""> </div>","null","html-keyboard-response","432","492203","0.0-32.0-4.44","","","fixation_3","","","","","",""
"null","","null","html-keyboard-response","433","492208","0.0-32.0-5.44","","","test","downarrow","0","1","FALSE","FALSE",""
"null","<div style=""font-size:60px;""> </div>","null","html-keyboard-response","434","492510","0.0-32.0-6.44","","","fixation_4","","","","","",""
"261.7999999523163","arrows.png","40","image-keyboard-response","435","492772","0.0-32.0-7.44","","","test","downarrow","0","1","FALSE","FALSE","true"
"null","<p style=""color: green; font-size:300%;"">correct: $2.50</p>","null","html-keyboard-response","436","494026","0.0-32.0-8.44","","","","","","","","",""
"null","<div style=""font-size:60px;""> </div>","null","html-keyboard-response","437","495328","0.0-32.0-0.45","","","fixation_1","","","","","",""
"null","","null","image-keyboard-response","438","495334","0.0-32.0-1.45","","","test","leftarrow","0","1","FALSE","FALSE",""
"null","<div style=""font-size:60px;""> </div>","null","html-keyboard-response","439","495635","0.0-32.0-2.45","","","fixation_2","","","","","",""
"null","img_4.bmp","null","image-keyboard-response","440","496637","0.0-32.0-3.45","","","img_on","","","","","",""
"null","<div style=""font-size:60px;""> </div>","null","html-keyboard-response","441","496938","0.0-32.0-4.45","","","fixation_3","","","","","",""
"null","","null","html-keyboard-response","442","496944","0.0-32.0-5.45","","","test","leftarrow","0","1","FALSE","FALSE",""
"null","<div style=""font-size:60px;""> </div>","null","html-keyboard-response","443","497249","0.0-32.0-6.45","","","fixation_4","","","","","",""
"242.79999995231628","arrows.png","37","image-keyboard-response","444","497516","0.0-32.0-7.45","","","test","leftarrow","0","1","FALSE","FALSE","true"
"null","<p style=""color: green; font-size:300%;"">correct: $2.50</p>","null","html-keyboard-response","445","498770","0.0-32.0-8.45","","","","","","","","",""
"null","<div style=""font-size:60px;""> </div>","null","html-keyboard-response","446","499331","0.0-32.0-0.46","","","fixation_1","","","","","",""
"null","","null","image-keyboard-response","447","499354","0.0-32.0-1.46","","","test","rightarrow","1","1","FALSE","FALSE",""
"null","<div style=""font-size:60px;""> </div>","null","html-keyboard-response","448","499658","0.0-32.0-2.46","","","fixation_2","","","","","",""
"null","img_2.bmp","null","image-keyboard-response","449","500661","0.0-32.0-3.46","","","img_on","","","","","",""
"null","<div style=""font-size:60px;""> </div>","null","html-keyboard-response","450","500963","0.0-32.0-4.46","","","fixation_3","","","","","",""
"null","","null","html-keyboard-response","451","500972","0.0-32.0-5.46","","","test","rightarrow","1","1","FALSE","FALSE",""
"null","<div style=""font-size:60px;""> </div>","null","html-keyboard-response","452","501273","0.0-32.0-6.46","","","fixation_4","","","","","",""
"314.89999997615814","arrows.png","39","image-keyboard-response","453","501589","0.0-32.0-7.46","","","test","rightarrow","1","1","FALSE","FALSE","true"
"null","<p style=""color: green; font-size:300%;"">correct: $7.50</p>","null","html-keyboard-response","454","502841","0.0-32.0-8.46","","","","","","","","",""
"null","<div style=""font-size:60px;""> </div>","null","html-keyboard-response","455","503894","0.0-32.0-0.47","","","fixation_1","","","","","",""
"null","","null","image-keyboard-response","456","503900","0.0-32.0-1.47","","","test","uparrow","1","1","FALSE","FALSE",""
"null","<div style=""font-size:60px;""> </div>","null","html-keyboard-response","457","504201","0.0-32.0-2.47","","","fixation_2","","","","","",""
"null","img_1.bmp","null","image-keyboard-response","458","505203","0.0-32.0-3.47","","","img_on","","","","","",""
"null","<div style=""font-size:60px;""> </div>","null","html-keyboard-response","459","505505","0.0-32.0-4.47","","","fixation_3","","","","","",""
"null","","null","html-keyboard-response","460","505511","0.0-32.0-5.47","","","test","uparrow","1","1","FALSE","FALSE",""
"null","<div style=""font-size:60px;""> </div>","null","html-keyboard-response","461","505813","0.0-32.0-6.47","","","fixation_4","","","","","",""
"222.30000007152557","arrows.png","38","image-keyboard-response","462","506037","0.0-32.0-7.47","","","test","uparrow","1","1","FALSE","FALSE","true"
"null","<p style=""color: green; font-size:300%;"">correct: $7.50</p>","null","html-keyboard-response","463","507290","0.0-32.0-8.47","","","","","","","","",""
"null","<div style=""font-size:60px;""> </div>","null","html-keyboard-response","464","508342","0.0-32.0-0.48","","","fixation_1","","","","","",""
"null","","null","image-keyboard-response","465","508348","0.0-32.0-1.48","","","test","uparrow","1","1","FALSE","FALSE",""
"null","<div style=""font-size:60px;""> </div>","null","html-keyboard-response","466","508650","0.0-32.0-2.48","","","fixation_2","","","","","",""
"null","img_1.bmp","null","image-keyboard-response","467","509651","0.0-32.0-3.48","","","img_on","","","","","",""
"null","<div style=""font-size:60px;""> </div>","null","html-keyboard-response","468","509979","0.0-32.0-4.48","","","fixation_3","","","","","",""
"null","","null","html-keyboard-response","469","510008","0.0-32.0-5.48","","","test","uparrow","1","1","FALSE","FALSE",""
"null","<div style=""font-size:60px;""> </div>","null","html-keyboard-response","470","510309","0.0-32.0-6.48","","","fixation_4","","","","","",""
"336.2999999523163","arrows.png","38","image-keyboard-response","471","510647","0.0-32.0-7.48","","","test","uparrow","1","1","FALSE","FALSE","true"
"null","<p style=""color: green; font-size:300%;"">correct: $7.50</p>","null","html-keyboard-response","472","511899","0.0-32.0-8.48","","","","","","","","",""
"null","<div style=""font-size:60px;""> </div>","null","html-keyboard-response","473","513201","0.0-32.0-0.49","","","fixation_1","","","","","",""
"null","","null","image-keyboard-response","474","513207","0.0-32.0-1.49","","","test","downarrow","0","1","FALSE","FALSE",""
"null","<div style=""font-size:60px;""> </div>","null","html-keyboard-response","475","513508","0.0-32.0-2.49","","","fixation_2","","","","","",""
"null","img_3.bmp","null","image-keyboard-response","476","514511","0.0-32.0-3.49","","","img_on","","","","","",""
"null","<div style=""font-size:60px;""> </div>","null","html-keyboard-response","477","514812","0.0-32.0-4.49","","","fixation_3","","","","","",""
"null","","null","html-keyboard-response","478","514818","0.0-32.0-5.49","","","test","downarrow","0","1","FALSE","FALSE",""
"null","<div style=""font-size:60px;""> </div>","null","html-keyboard-response","479","515119","0.0-32.0-6.49","","","fixation_4","","","","","",""
"281.7999999523163","arrows.png","40","image-keyboard-response","480","515402","0.0-32.0-7.49","","","test","downarrow","0","1","FALSE","FALSE","true"
"null","<p style=""color: green; font-size:300%;"">correct: $2.50</p>","null","html-keyboard-response","481","516657","0.0-32.0-8.49","","","","","","","","",""
"null","<div style=""font-size:60px;""> </div>","null","html-keyboard-response","482","517209","0.0-32.0-0.50","","","fixation_1","","","","","",""
"null","","null","image-keyboard-response","483","517215","0.0-32.0-1.50","","","test","leftarrow","0","1","FALSE","FALSE",""
"null","<div style=""font-size:60px;""> </div>","null","html-keyboard-response","484","517517","0.0-32.0-2.50","","","fixation_2","","","","","",""
"null","img_4.bmp","null","image-keyboard-response","485","518519","0.0-32.0-3.50","","","img_on","","","","","",""
"null","<div style=""font-size:60px;""> </div>","null","html-keyboard-response","486","518821","0.0-32.0-4.50","","","fixation_3","","","","","",""
"null","","null","html-keyboard-response","487","518827","0.0-32.0-5.50","","","test","leftarrow","0","1","FALSE","FALSE",""
"null","<div style=""font-size:60px;""> </div>","null","html-keyboard-response","488","519128","0.0-32.0-6.50","","","fixation_4","","","","","",""
"179.80000007152557","arrows.png","37","image-keyboard-response","489","519309","0.0-32.0-7.50","","","test","leftarrow","0","1","FALSE","FALSE","true"
"null","<p style=""color: green; font-size:300%;"">correct: $2.50</p>","null","html-keyboard-response","490","520561","0.0-32.0-8.50","","","","","","","","",""
"null","<div style=""font-size:60px;""> </div>","null","html-keyboard-response","491","521114","0.0-32.0-0.51","","","fixation_1","","","","","",""
"null","","null","image-keyboard-response","492","521120","0.0-32.0-1.51","","","test","rightarrow","1","1","FALSE","FALSE",""
"null","<div style=""font-size:60px;""> </div>","null","html-keyboard-response","493","521421","0.0-32.0-2.51","","","fixation_2","","","","","",""
"null","img_2.bmp","null","image-keyboard-response","494","522424","0.0-32.0-3.51","","","img_on","","","","","",""
"null","<div style=""font-size:60px;""> </div>","null","html-keyboard-response","495","522726","0.0-32.0-4.51","","","fixation_3","","","","","",""
"null","","null","html-keyboard-response","496","522734","0.0-32.0-5.51","","","test","rightarrow","1","1","FALSE","FALSE",""
"null","<div style=""font-size:60px;""> </div>","null","html-keyboard-response","497","523035","0.0-32.0-6.51","","","fixation_4","","","","","",""
"240.5","arrows.png","39","image-keyboard-response","498","523277","0.0-32.0-7.51","","","test","rightarrow","1","1","FALSE","FALSE","true"
"null","<p style=""color: green; font-size:300%;"">correct: $7.50</p>","null","html-keyboard-response","499","524531","0.0-32.0-8.51","","","","","","","","",""
"null","<div style=""font-size:60px;""> </div>","null","html-keyboard-response","500","525852","0.0-32.0-0.52","","","fixation_1","","","","","",""
"null","switch_cue.png","null","image-keyboard-response","501","526855","0.0-32.0-1.52","","","test","leftarrow","1","2","TRUE","TRUE",""
"null","<div style=""font-size:60px;""> </div>","null","html-keyboard-response","502","527156","0.0-32.0-2.52","","","fixation_2","","","","","",""
"null","img_3.bmp","null","image-keyboard-response","503","528159","0.0-32.0-3.52","","","img_on","","","","","",""
"null","<div style=""font-size:60px;""> </div>","null","html-keyboard-response","504","528459","0.0-32.0-4.52","","","fixation_3","","","","","",""
"null","<img src=""CC2.png"" width=200 height=200/>","null","html-keyboard-response","505","529461","0.0-32.0-5.52","","","test","leftarrow","1","2","TRUE","TRUE",""
"null","<div style=""font-size:60px;""> </div>","null","html-keyboard-response","506","529763","0.0-32.0-6.52","","","fixation_4","","","","","",""
"1189","arrows.png","37","image-keyboard-response","507","530953","0.0-32.0-7.52","","","test","leftarrow","1","2","TRUE","TRUE","true"
"null","<p style=""color: green; font-size:300%;"">correct: $7.50</p>","null","html-keyboard-response","508","532206","0.0-32.0-8.52","","","","","","","","",""
"null","<div style=""font-size:60px;""> </div>","null","html-keyboard-response","509","533259","0.0-32.0-0.53","","","fixation_1","","","","","",""
"null","","null","image-keyboard-response","510","533265","0.0-32.0-1.53","","","test","downarrow","1","2","TRUE","FALSE",""
"null","<div style=""font-size:60px;""> </div>","null","html-keyboard-response","511","533566","0.0-32.0-2.53","","","fixation_2","","","","","",""
"null","img_2.bmp","null","image-keyboard-response","512","534568","0.0-32.0-3.53","","","img_on","","","","","",""
"null","<div style=""font-size:60px;""> </div>","null","html-keyboard-response","513","534885","0.0-32.0-4.53","","","fixation_3","","","","","",""
"null","<img src=""CC2.png"" width=200 height=200/>","null","html-keyboard-response","514","535887","0.0-32.0-5.53","","","test","downarrow","1","2","TRUE","FALSE",""
"null","<div style=""font-size:60px;""> </div>","null","html-keyboard-response","515","536189","0.0-32.0-6.53","","","fixation_4","","","","","",""
"319.09999990463257","arrows.png","38","image-keyboard-response","516","536508","0.0-32.0-7.53","","","test","downarrow","1","2","TRUE","FALSE","false"
"null","<p style=""color: red; font-size:300%;"">incorrect: $0</p>","null","html-keyboard-response","517","537764","0.0-32.0-8.53","","","","","","","","",""
"null","<div style=""font-size:60px;""> </div>","null","html-keyboard-response","518","538317","0.0-32.0-0.54","","","fixation_1","","","","","",""
"null","","null","image-keyboard-response","519","538323","0.0-32.0-1.54","","","test","rightarrow","0","2","TRUE","FALSE",""
"null","<div style=""font-size:60px;""> </div>","null","html-keyboard-response","520","538624","0.0-32.0-2.54","","","fixation_2","","","","","",""
"null","img_1.bmp","null","image-keyboard-response","521","539627","0.0-32.0-3.54","","","img_on","","","","","",""
"null","<div style=""font-size:60px;""> </div>","null","html-keyboard-response","522","539928","0.0-32.0-4.54","","","fixation_3","","","","","",""
"null","<img src=""CC2.png"" width=200 height=200/>","null","html-keyboard-response","523","540931","0.0-32.0-5.54","","","test","rightarrow","0","2","TRUE","FALSE",""
"null","<div style=""font-size:60px;""> </div>","null","html-keyboard-response","524","541235","0.0-32.0-6.54","","","fixation_4","","","","","",""
"129.10000002384186","arrows.png","38","image-keyboard-response","525","541365","0.0-32.0-7.54","","","test","rightarrow","0","2","TRUE","FALSE","false"
"null","<p style=""color: red; font-size:300%;"">incorrect: $0</p>","null","html-keyboard-response","526","542619","0.0-32.0-8.54","","","","","","","","",""
"null","<div style=""font-size:60px;""> </div>","null","html-keyboard-response","527","543172","0.0-32.0-0.55","","","fixation_1","","","","","",""
"null","","null","image-keyboard-response","528","543178","0.0-32.0-1.55","","","test","uparrow","0","2","TRUE","FALSE",""
"null","<div style=""font-size:60px;""> </div>","null","html-keyboard-response","529","543479","0.0-32.0-2.55","","","fixation_2","","","","","",""
"null","img_4.bmp","null","image-keyboard-response","530","544481","0.0-32.0-3.55","","","img_on","","","","","",""
"null","<div style=""font-size:60px;""> </div>","null","html-keyboard-response","531","544784","0.0-32.0-4.55","","","fixation_3","","","","","",""
"null","<img src=""CC2.png"" width=200 height=200/>","null","html-keyboard-response","532","545789","0.0-32.0-5.55","","","test","uparrow","0","2","TRUE","FALSE",""
"null","<div style=""font-size:60px;""> </div>","null","html-keyboard-response","533","546095","0.0-32.0-6.55","","","fixation_4","","","","","",""
"221.09999990463257","arrows.png","38","image-keyboard-response","534","546324","0.0-32.0-7.55","","","test","uparrow","0","2","TRUE","FALSE","true"
"null","<p style=""color: green; font-size:300%;"">correct: $2.50</p>","null","html-keyboard-response","535","547577","0.0-32.0-8.55","","","","","","","","",""
"null","<div style=""font-size:60px;""> </div>","null","html-keyboard-response","536","548130","0.0-32.0-0.56","","","fixation_1","","","","","",""
"null","","null","image-keyboard-response","537","548138","0.0-32.0-1.56","","","test","leftarrow","1","2","FALSE","FALSE",""
"null","<div style=""font-size:60px;""> </div>","null","html-keyboard-response","538","548439","0.0-32.0-2.56","","","fixation_2","","","","","",""
"null","img_3.bmp","null","image-keyboard-response","539","549440","0.0-32.0-3.56","","","img_on","","","","","",""
"null","<div style=""font-size:60px;""> </div>","null","html-keyboard-response","540","549742","0.0-32.0-4.56","","","fixation_3","","","","","",""
"null","","null","html-keyboard-response","541","549748","0.0-32.0-5.56","","","test","leftarrow","1","2","FALSE","FALSE",""
"null","<div style=""font-size:60px;""> </div>","null","html-keyboard-response","542","550075","0.0-32.0-6.56","","","fixation_4","","","","","",""
"263.7999999523163","arrows.png","37","image-keyboard-response","543","550349","0.0-32.0-7.56","","","test","leftarrow","1","2","FALSE","FALSE","true"
"null","<p style=""color: green; font-size:300%;"">correct: $7.50</p>","null","html-keyboard-response","544","551605","0.0-32.0-8.56","","","","","","","","",""
"null","<div style=""font-size:60px;""> </div>","null","html-keyboard-response","545","552407","0.0-32.0-0.57","","","fixation_1","","","","","",""
"null","","null","image-keyboard-response","546","552413","0.0-32.0-1.57","","","test","uparrow","0","2","FALSE","FALSE",""
"null","<div style=""font-size:60px;""> </div>","null","html-keyboard-response","547","552738","0.0-32.0-2.57","","","fixation_2","","","","","",""
"null","img_4.bmp","null","image-keyboard-response","548","553740","0.0-32.0-3.57","","","img_on","","","","","",""
"null","<div style=""font-size:60px;""> </div>","null","html-keyboard-response","549","554041","0.0-32.0-4.57","","","fixation_3","","","","","",""
"null","","null","html-keyboard-response","550","554046","0.0-32.0-5.57","","","test","uparrow","0","2","FALSE","FALSE",""
"null","<div style=""font-size:60px;""> </div>","null","html-keyboard-response","551","554347","0.0-32.0-6.57","","","fixation_4","","","","","",""
"441.6999999284744","arrows.png","38","image-keyboard-response","552","554789","0.0-32.0-7.57","","","test","uparrow","0","2","FALSE","FALSE","true"
"null","<p style=""color: green; font-size:300%;"">correct: $2.50</p>","null","html-keyboard-response","553","556050","0.0-32.0-8.57","","","","","","","","",""
"null","<div style=""font-size:60px;""> </div>","null","html-keyboard-response","554","556854","0.0-32.0-0.58","","","fixation_1","","","","","",""
"null","","null","image-keyboard-response","555","556860","0.0-32.0-1.58","","","test","downarrow","1","2","FALSE","FALSE",""
"null","<div style=""font-size:60px;""> </div>","null","html-keyboard-response","556","557161","0.0-32.0-2.58","","","fixation_2","","","","","",""
"null","img_2.bmp","null","image-keyboard-response","557","558163","0.0-32.0-3.58","","","img_on","","","","","",""
"null","<div style=""font-size:60px;""> </div>","null","html-keyboard-response","558","558464","0.0-32.0-4.58","","","fixation_3","","","","","",""
"null","","null","html-keyboard-response","559","558475","0.0-32.0-5.58","","","test","downarrow","1","2","FALSE","FALSE",""
"null","<div style=""font-size:60px;""> </div>","null","html-keyboard-response","560","558787","0.0-32.0-6.58","","","fixation_4","","","","","",""
"216.29999995231628","arrows.png","39","image-keyboard-response","561","559004","0.0-32.0-7.58","","","test","downarrow","1","2","FALSE","FALSE","false"
"null","<p style=""color: red; font-size:300%;"">incorrect: $0</p>","null","html-keyboard-response","562","560259","0.0-32.0-8.58","","","","","","","","",""
"null","<div style=""font-size:60px;""> </div>","null","html-keyboard-response","563","560816","0.0-32.0-0.59","","","fixation_1","","","","","",""
"null","","null","image-keyboard-response","564","560823","0.0-32.0-1.59","","","test","rightarrow","0","2","FALSE","FALSE",""
"null","<div style=""font-size:60px;""> </div>","null","html-keyboard-response","565","561124","0.0-32.0-2.59","","","fixation_2","","","","","",""
"null","img_1.bmp","null","image-keyboard-response","566","562126","0.0-32.0-3.59","","","img_on","","","","","",""
"null","<div style=""font-size:60px;""> </div>","null","html-keyboard-response","567","562437","0.0-32.0-4.59","","","fixation_3","","","","","",""
"null","","null","html-keyboard-response","568","562443","0.0-32.0-5.59","","","test","rightarrow","0","2","FALSE","FALSE",""
"null","<div style=""font-size:60px;""> </div>","null","html-keyboard-response","569","562744","0.0-32.0-6.59","","","fixation_4","","","","","",""
"419.5","arrows.png","39","image-keyboard-response","570","563165","0.0-32.0-7.59","","","test","rightarrow","0","2","FALSE","FALSE","true"
"null","<p style=""color: green; font-size:300%;"">correct: $2.50</p>","null","html-keyboard-response","571","564417","0.0-32.0-8.59","","","","","","","","",""
"null","<div style=""font-size:60px;""> </div>","null","html-keyboard-response","572","565971","0.0-32.0-0.60","","","fixation_1","","","","","",""
"null","","null","image-keyboard-response","573","565979","0.0-32.0-1.60","","","test","leftarrow","1","2","FALSE","FALSE",""
"null","<div style=""font-size:60px;""> </div>","null","html-keyboard-response","574","566282","0.0-32.0-2.60","","","fixation_2","","","","","",""
"null","img_3.bmp","null","image-keyboard-response","575","567283","0.0-32.0-3.60","","","img_on","","","","","",""
"null","<div style=""font-size:60px;""> </div>","null","html-keyboard-response","576","567585","0.0-32.0-4.60","","","fixation_3","","","","","",""
"null","","null","html-keyboard-response","577","567591","0.0-32.0-5.60","","","test","leftarrow","1","2","FALSE","FALSE",""
"null","<div style=""font-size:60px;""> </div>","null","html-keyboard-response","578","567892","0.0-32.0-6.60","","","fixation_4","","","","","",""
"384.39999997615814","arrows.png","37","image-keyboard-response","579","568277","0.0-32.0-7.60","","","test","leftarrow","1","2","FALSE","FALSE","true"
"null","<p style=""color: green; font-size:300%;"">correct: $7.50</p>","null","html-keyboard-response","580","569530","0.0-32.0-8.60","","","","","","","","",""
"null","<div style=""font-size:60px;""> </div>","null","html-keyboard-response","581","570834","0.0-32.0-0.61","","","fixation_1","","","","","",""
"null","","null","image-keyboard-response","582","570839","0.0-32.0-1.61","","","test","downarrow","1","2","FALSE","FALSE",""
"null","<div style=""font-size:60px;""> </div>","null","html-keyboard-response","583","571141","0.0-32.0-2.61","","","fixation_2","","","","","",""
"null","img_2.bmp","null","image-keyboard-response","584","572142","0.0-32.0-3.61","","","img_on","","","","","",""
"null","<div style=""font-size:60px;""> </div>","null","html-keyboard-response","585","572444","0.0-32.0-4.61","","","fixation_3","","","","","",""
"null","","null","html-keyboard-response","586","572451","0.0-32.0-5.61","","","test","downarrow","1","2","FALSE","FALSE",""
"null","<div style=""font-size:60px;""> </div>","null","html-keyboard-response","587","572764","0.0-32.0-6.61","","","fixation_4","","","","","",""
"1255.7999999523163","arrows.png","40","image-keyboard-response","588","574021","0.0-32.0-7.61","","","test","downarrow","1","2","FALSE","FALSE","true"
"null","<p style=""color: green; font-size:300%;"">correct: $7.50</p>","null","html-keyboard-response","589","575273","0.0-32.0-8.61","","","","","","","","",""
"null","<div style=""font-size:60px;""> </div>","null","html-keyboard-response","590","575851","0.0-32.0-0.62","","","fixation_1","","","","","",""
"null","","null","image-keyboard-response","591","575858","0.0-32.0-1.62","","","test","uparrow","0","2","FALSE","FALSE",""
"null","<div style=""font-size:60px;""> </div>","null","html-keyboard-response","592","576159","0.0-32.0-2.62","","","fixation_2","","","","","",""
"null","img_4.bmp","null","image-keyboard-response","593","577161","0.0-32.0-3.62","","","img_on","","","","","",""
"null","<div style=""font-size:60px;""> </div>","null","html-keyboard-response","594","577463","0.0-32.0-4.62","","","fixation_3","","","","","",""
"null","","null","html-keyboard-response","595","577469","0.0-32.0-5.62","","","test","uparrow","0","2","FALSE","FALSE",""
"null","<div style=""font-size:60px;""> </div>","null","html-keyboard-response","596","577771","0.0-32.0-6.62","","","fixation_4","","","","","",""
"626.4000000953674","arrows.png","38","image-keyboard-response","597","578398","0.0-32.0-7.62","","","test","uparrow","0","2","FALSE","FALSE","true"
"null","<p style=""color: green; font-size:300%;"">correct: $2.50</p>","null","html-keyboard-response","598","579667","0.0-32.0-8.62","","","","","","","","",""
"null","<div style=""font-size:60px;""> </div>","null","html-keyboard-response","599","580469","0.0-32.0-0.63","","","fixation_1","","","","","",""
"null","switch_cue.png","null","image-keyboard-response","600","581471","0.0-32.0-1.63","","","test","rightarrow","0","2","TRUE","TRUE",""
"null","<div style=""font-size:60px;""> </div>","null","html-keyboard-response","601","581788","0.0-32.0-2.63","","","fixation_2","","","","","",""
"null","img_1.bmp","null","image-keyboard-response","602","582790","0.0-32.0-3.63","","","img_on","","","","","",""
"null","<div style=""font-size:60px;""> </div>","null","html-keyboard-response","603","583091","0.0-32.0-4.63","","","fixation_3","","","","","",""
"null","<img src=""CC2.png"" width=200 height=200/>","null","html-keyboard-response","604","584093","0.0-32.0-5.63","","","test","rightarrow","0","2","TRUE","TRUE",""
"null","<div style=""font-size:60px;""> </div>","null","html-keyboard-response","605","584394","0.0-32.0-6.63","","","fixation_4","","","","","",""
"122","arrows.png","39","image-keyboard-response","606","584517","0.0-32.0-7.63","","","test","rightarrow","0","2","TRUE","TRUE","true"
"null","<p style=""color: green; font-size:300%;"">correct: $2.50</p>","null","html-keyboard-response","607","585775","0.0-32.0-8.63","","","","","","","","",""
"null","<div style=""font-size:60px;""> </div>","null","html-keyboard-response","608","586578","0.0-32.0-0.64","","","fixation_1","","","","","",""
"null","switch_cue.png","null","image-keyboard-response","609","587579","0.0-32.0-1.64","","","test","rightarrow","1","1","TRUE","TRUE",""
"null","<div style=""font-size:60px;""> </div>","null","html-keyboard-response","610","587883","0.0-32.0-2.64","","","fixation_2","","","","","",""
"null","img_2.bmp","null","image-keyboard-response","611","588885","0.0-32.0-3.64","","","img_on","","","","","",""
"null","<div style=""font-size:60px;""> </div>","null","html-keyboard-response","612","589186","0.0-32.0-4.64","","","fixation_3","","","","","",""
"null","<img src=""CC1.png"" width=200 height=200/>","null","html-keyboard-response","613","590188","0.0-32.0-5.64","","","test","rightarrow","1","1","TRUE","TRUE",""
"null","<div style=""font-size:60px;""> </div>","null","html-keyboard-response","614","590489","0.0-32.0-6.64","","","fixation_4","","","","","",""
"261.89999997615814","arrows.png","37","image-keyboard-response","615","590752","0.0-32.0-7.64","","","test","rightarrow","1","1","TRUE","TRUE","false"
"null","<p style=""color: red; font-size:300%;"">incorrect: $0</p>","null","html-keyboard-response","616","592007","0.0-32.0-8.64","","","","","","","","",""
"null","<div style=""font-size:60px;""> </div>","null","html-keyboard-response","617","592809","0.0-32.0-0.65","","","fixation_1","","","","","",""
"null","","null","image-keyboard-response","618","592815","0.0-32.0-1.65","","","test","leftarrow","0","1","TRUE","FALSE",""
"null","<div style=""font-size:60px;""> </div>","null","html-keyboard-response","619","593117","0.0-32.0-2.65","","","fixation_2","","","","","",""
"null","img_4.bmp","null","image-keyboard-response","620","594118","0.0-32.0-3.65","","","img_on","","","","","",""
"null","<div style=""font-size:60px;""> </div>","null","html-keyboard-response","621","594420","0.0-32.0-4.65","","","fixation_3","","","","","",""
"null","<img src=""CC1.png"" width=200 height=200/>","null","html-keyboard-response","622","595423","0.0-32.0-5.65","","","test","leftarrow","0","1","TRUE","FALSE",""
"null","<div style=""font-size:60px;""> </div>","null","html-keyboard-response","623","595724","0.0-32.0-6.65","","","fixation_4","","","","","",""
"216.09999990463257","arrows.png","37","image-keyboard-response","624","595941","0.0-32.0-7.65","","","test","leftarrow","0","1","TRUE","FALSE","true"
"null","<p style=""color: green; font-size:300%;"">correct: $2.50</p>","null","html-keyboard-response","625","597193","0.0-32.0-8.65","","","","","","","","",""
"null","<div style=""font-size:60px;""> </div>","null","html-keyboard-response","626","598246","0.0-32.0-0.66","","","fixation_1","","","","","",""
"null","","null","image-keyboard-response","627","598252","0.0-32.0-1.66","","","test","uparrow","1","1","TRUE","FALSE",""
"null","<div style=""font-size:60px;""> </div>","null","html-keyboard-response","628","598553","0.0-32.0-2.66","","","fixation_2","","","","","",""
"null","img_1.bmp","null","image-keyboard-response","629","599556","0.0-32.0-3.66","","","img_on","","","","","",""
"null","<div style=""font-size:60px;""> </div>","null","html-keyboard-response","630","599858","0.0-32.0-4.66","","","fixation_3","","","","","",""
"null","<img src=""CC1.png"" width=200 height=200/>","null","html-keyboard-response","631","600860","0.0-32.0-5.66","","","test","uparrow","1","1","TRUE","FALSE",""
"null","<div style=""font-size:60px;""> </div>","null","html-keyboard-response","632","601165","0.0-32.0-6.66","","","fixation_4","","","","","",""
"389.1999999284744","arrows.png","38","image-keyboard-response","633","601557","0.0-32.0-7.66","","","test","uparrow","1","1","TRUE","FALSE","true"
"null","<p style=""color: green; font-size:300%;"">correct: $7.50</p>","null","html-keyboard-response","634","602810","0.0-32.0-8.66","","","","","","","","",""
"null","<div style=""font-size:60px;""> </div>","null","html-keyboard-response","635","603366","0.0-32.0-0.67","","","fixation_1","","","","","",""
"null","","null","image-keyboard-response","636","603373","0.0-32.0-1.67","","","test","downarrow","0","1","TRUE","FALSE",""
"null","<div style=""font-size:60px;""> </div>","null","html-keyboard-response","637","603674","0.0-32.0-2.67","","","fixation_2","","","","","",""
"null","img_3.bmp","null","image-keyboard-response","638","604676","0.0-32.0-3.67","","","img_on","","","","","",""
"null","<div style=""font-size:60px;""> </div>","null","html-keyboard-response","639","604977","0.0-32.0-4.67","","","fixation_3","","","","","",""
"null","<img src=""CC1.png"" width=200 height=200/>","null","html-keyboard-response","640","605980","0.0-32.0-5.67","","","test","downarrow","0","1","TRUE","FALSE",""
"null","<div style=""font-size:60px;""> </div>","null","html-keyboard-response","641","606281","0.0-32.0-6.67","","","fixation_4","","","","","",""
"299.5","arrows.png","39","image-keyboard-response","642","606581","0.0-32.0-7.67","","","test","downarrow","0","1","TRUE","FALSE","false"
"null","<p style=""color: red; font-size:300%;"">incorrect: $0</p>","null","html-keyboard-response","643","607833","0.0-32.0-8.67","","","","","","","","",""
"null","<div style=""font-size:60px;""> </div>","null","html-keyboard-response","644","608636","0.0-32.0-0.68","","","fixation_1","","","","","",""
"null","","null","image-keyboard-response","645","608642","0.0-32.0-1.68","","","test","leftarrow","0","1","FALSE","FALSE",""
"null","<div style=""font-size:60px;""> </div>","null","html-keyboard-response","646","608943","0.0-32.0-2.68","","","fixation_2","","","","","",""
"null","img_4.bmp","null","image-keyboard-response","647","609970","0.0-32.0-3.68","","","img_on","","","","","",""
"null","<div style=""font-size:60px;""> </div>","null","html-keyboard-response","648","610271","0.0-32.0-4.68","","","fixation_3","","","","","",""
"null","","null","html-keyboard-response","649","610276","0.0-32.0-5.68","","","test","leftarrow","0","1","FALSE","FALSE",""
"null","<div style=""font-size:60px;""> </div>","null","html-keyboard-response","650","610577","0.0-32.0-6.68","","","fixation_4","","","","","",""
"266","arrows.png","37","image-keyboard-response","651","610845","0.0-32.0-7.68","","","test","leftarrow","0","1","FALSE","FALSE","true"
"null","<p style=""color: green; font-size:300%;"">correct: $2.50</p>","null","html-keyboard-response","652","612098","0.0-32.0-8.68","","","","","","","","",""
"null","<div style=""font-size:60px;""> </div>","null","html-keyboard-response","653","612650","0.0-32.0-0.69","","","fixation_1","","","","","",""
"null","","null","image-keyboard-response","654","612656","0.0-32.0-1.69","","","test","rightarrow","1","1","FALSE","FALSE",""
"null","<div style=""font-size:60px;""> </div>","null","html-keyboard-response","655","612957","0.0-32.0-2.69","","","fixation_2","","","","","",""
"null","img_2.bmp","null","image-keyboard-response","656","613959","0.0-32.0-3.69","","","img_on","","","","","",""
"null","<div style=""font-size:60px;""> </div>","null","html-keyboard-response","657","614260","0.0-32.0-4.69","","","fixation_3","","","","","",""
"null","","null","html-keyboard-response","658","614266","0.0-32.0-5.69","","","test","rightarrow","1","1","FALSE","FALSE",""
"null","<div style=""font-size:60px;""> </div>","null","html-keyboard-response","659","614567","0.0-32.0-6.69","","","fixation_4","","","","","",""
"333.3000000715256","arrows.png","39","image-keyboard-response","660","614901","0.0-32.0-7.69","","","test","rightarrow","1","1","FALSE","FALSE","true"
"null","<p style=""color: green; font-size:300%;"">correct: $7.50</p>","null","html-keyboard-response","661","616155","0.0-32.0-8.69","","","","","","","","",""
"null","<div style=""font-size:60px;""> </div>","null","html-keyboard-response","662","617707","0.0-32.0-0.70","","","fixation_1","","","","","",""
"null","","null","image-keyboard-response","663","617713","0.0-32.0-1.70","","","test","uparrow","1","1","FALSE","FALSE",""
"null","<div style=""font-size:60px;""> </div>","null","html-keyboard-response","664","618014","0.0-32.0-2.70","","","fixation_2","","","","","",""
"null","img_1.bmp","null","image-keyboard-response","665","619016","0.0-32.0-3.70","","","img_on","","","","","",""
"null","<div style=""font-size:60px;""> </div>","null","html-keyboard-response","666","619342","0.0-32.0-4.70","","","fixation_3","","","","","",""
"null","","null","html-keyboard-response","667","619381","0.0-32.0-5.70","","","test","uparrow","1","1","FALSE","FALSE",""
"null","<div style=""font-size:60px;""> </div>","null","html-keyboard-response","668","619682","0.0-32.0-6.70","","","fixation_4","","","","","",""
"250","arrows.png","38","image-keyboard-response","669","619933","0.0-32.0-7.70","","","test","uparrow","1","1","FALSE","FALSE","true"
"null","<p style=""color: green; font-size:300%;"">correct: $7.50</p>","null","html-keyboard-response","670","621187","0.0-32.0-8.70","","","","","","","","",""
"null","<div style=""font-size:60px;""> </div>","null","html-keyboard-response","671","622239","0.0-32.0-0.71","","","fixation_1","","","","","",""
"null","","null","image-keyboard-response","672","622245","0.0-32.0-1.71","","","test","downarrow","0","1","FALSE","FALSE",""
"null","<div style=""font-size:60px;""> </div>","null","html-keyboard-response","673","622550","0.0-32.0-2.71","","","fixation_2","","","","","",""
"null","img_3.bmp","null","image-keyboard-response","674","623552","0.0-32.0-3.71","","","img_on","","","","","",""
"null","<div style=""font-size:60px;""> </div>","null","html-keyboard-response","675","623854","0.0-32.0-4.71","","","fixation_3","","","","","",""
"null","","null","html-keyboard-response","676","623861","0.0-32.0-5.71","","","test","downarrow","0","1","FALSE","FALSE",""
"null","<div style=""font-size:60px;""> </div>","null","html-keyboard-response","677","624162","0.0-32.0-6.71","","","fixation_4","","","","","",""
"361.90000009536743","arrows.png","40","image-keyboard-response","678","624525","0.0-32.0-7.71","","","test","downarrow","0","1","FALSE","FALSE","true"
"null","<p style=""color: green; font-size:300%;"">correct: $2.50</p>","null","html-keyboard-response","679","625778","0.0-32.0-8.71","","","","","","","","",""
"null","<div style=""font-size:60px;""> </div>","null","html-keyboard-response","680","627330","0.0-32.0-0.72","","","fixation_1","","","","","",""
"null","","null","image-keyboard-response","681","627336","0.0-32.0-1.72","","","test","uparrow","1","1","FALSE","FALSE",""
"null","<div style=""font-size:60px;""> </div>","null","html-keyboard-response","682","627639","0.0-32.0-2.72","","","fixation_2","","","","","",""
"null","img_1.bmp","null","image-keyboard-response","683","628640","0.0-32.0-3.72","","","img_on","","","","","",""
"null","<div style=""font-size:60px;""> </div>","null","html-keyboard-response","684","628943","0.0-32.0-4.72","","","fixation_3","","","","","",""
"null","","null","html-keyboard-response","685","628949","0.0-32.0-5.72","","","test","uparrow","1","1","FALSE","FALSE",""
"null","<div style=""font-size:60px;""> </div>","null","html-keyboard-response","686","629251","0.0-32.0-6.72","","","fixation_4","","","","","",""
"265.7000000476837","arrows.png","38","image-keyboard-response","687","629517","0.0-32.0-7.72","","","test","uparrow","1","1","FALSE","FALSE","true"
"null","<p style=""color: green; font-size:300%;"">correct: $7.50</p>","null","html-keyboard-response","688","630769","0.0-32.0-8.72","","","","","","","","",""
"null","<div style=""font-size:60px;""> </div>","null","html-keyboard-response","689","631822","0.0-32.0-0.73","","","fixation_1","","","","","",""
"null","","null","image-keyboard-response","690","631828","0.0-32.0-1.73","","","test","downarrow","0","1","FALSE","FALSE",""
"null","<div style=""font-size:60px;""> </div>","null","html-keyboard-response","691","632165","0.0-32.0-2.73","","","fixation_2","","","","","",""
"null","img_3.bmp","null","image-keyboard-response","692","633167","0.0-32.0-3.73","","","img_on","","","","","",""
"null","<div style=""font-size:60px;""> </div>","null","html-keyboard-response","693","633468","0.0-32.0-4.73","","","fixation_3","","","","","",""
"null","","null","html-keyboard-response","694","633474","0.0-32.0-5.73","","","test","downarrow","0","1","FALSE","FALSE",""
"null","<div style=""font-size:60px;""> </div>","null","html-keyboard-response","695","633775","0.0-32.0-6.73","","","fixation_4","","","","","",""
