"rt","stimulus","key_press","trial_type","trial_index","time_elapsed","internal_node_id","responses","view_history","test_part","correct_response","outcome","context","cc","sc","correct"
"6765.5","<p><b>Welcome to the Picture Learning Game!</b></p>
      <p>The game will take ~35 minutes to complete, and you can make up to $17.50.</p>
      <p>You must use a desktop or laptop computer computer (no mobile devices).</p>
      <p><em>Press any key to continue.</em></p>","32","html-keyboard-response","0","6792","0.0-0.0","","","","","","","","",""
"5515.800000000047","","","survey-text","1","12315","0.0-1.0","{""aws"":""A5EU1AQJNC7F2""}","","","","","","","",""
"4520.800000000047","","","survey-text","2","16840","0.0-2.0","{""age"":""33"",""english"":""Y"",""handedness"":""R"",""desktop"":""Y""}","","","","","","","",""
"94145.79999999981","","","instructions","3","110991","0.0-3.0","","[{""page_index"":0,""viewing_time"":1497.5},{""page_index"":1,""viewing_time"":72754.29999999981},{""page_index"":2,""viewing_time"":2123.2000000001863},{""page_index"":3,""viewing_time"":14620.899999999907},{""page_index"":4,""viewing_time"":3149.600000000093}]","","","","","","",""
"null","sample1.bmp","null","image-keyboard-response","4","111994","0.0-4.0","","","","","","","","",""
"795.3999999999069","arrows.png","38","image-keyboard-response","5","113091","0.0-5.0","","","","","","","","",""
"15000.40000000014","","","instructions","6","128092","0.0-6.0","","[{""page_index"":0,""viewing_time"":2135.1999999999534},{""page_index"":1,""viewing_time"":10168.300000000047},{""page_index"":2,""viewing_time"":2696.600000000093}]","","","","","","",""
"null","sample1.bmp","null","image-keyboard-response","7","129094","0.0-7.0","","","","","","","","",""
"null","<img src=""CC1.png"" width=200 height=200/>","null","html-keyboard-response","8","130396","0.0-8.0","","","","","","","","",""
"909.3999999999069","arrows.png","38","image-keyboard-response","9","131608","0.0-9.0","","","","","","","","",""
"5166.40000000014","","","instructions","10","136775","0.0-10.0","","[{""page_index"":0,""viewing_time"":1694.5},{""page_index"":1,""viewing_time"":3471.600000000093}]","","","","","","",""
"null","sample1.bmp","null","image-keyboard-response","11","137777","0.0-11.0","","","","","","","","",""
"null","<img src=""CC2.png"" width=200 height=200/>","null","html-keyboard-response","12","139079","0.0-12.0","","","","","","","","",""
"260.80000000004657","arrows.png","39","image-keyboard-response","13","139642","0.0-13.0","","","","","","","","",""
"18594.199999999953","","","instructions","14","158237","0.0-14.0","","[{""page_index"":0,""viewing_time"":1206.6999999999534},{""page_index"":1,""viewing_time"":3219.5999999998603},{""page_index"":2,""viewing_time"":6097.90000000014},{""page_index"":3,""viewing_time"":4447},{""page_index"":4,""viewing_time"":3622.6999999999534}]","","","","","","",""
"null","sample1.bmp","null","image-keyboard-response","15","159239","0.0-15.0","","","","","","","","",""
"539.3000000000466","arrows.png","39","image-keyboard-response","16","160080","0.0-16.0","","","","","","","","",""
"10019.800000000047","","","instructions","17","170100","0.0-17.0","","[{""page_index"":0,""viewing_time"":2685.0999999998603},{""page_index"":1,""viewing_time"":5010},{""page_index"":2,""viewing_time"":2324.5}]","","","","","","",""
"null","sample1.bmp","null","image-keyboard-response","18","171102","0.0-18.0","","","","","","","","",""
"372.9000000001397","arrows.png","39","image-keyboard-response","19","171776","0.0-19.0","","","","","","","","",""
"null","<p style=""color: green; font-size:300%;"">correct</p>","null","html-keyboard-response","20","172778","0.0-20.0","","","","","","","","",""
"null","switch_cue.png","null","image-keyboard-response","21","174081","0.0-21.0","","","","","","","","",""
"null","sample1.bmp","null","image-keyboard-response","22","175383","0.0-22.0","","","","","","","","",""
"null","<img src=""CC2.png"" width=200 height=200/>","null","html-keyboard-response","23","176685","0.0-23.0","","","","","","","","",""
"4141.100000000093","arrows.png","39","image-keyboard-response","24","181128","0.0-24.0","","","","","","","","",""
"null","<p style=""color: green; font-size:300%;"">correct</p>","null","html-keyboard-response","25","182130","0.0-25.0","","","","","","","","",""
"null","switch_cue.png","null","image-keyboard-response","26","183432","0.0-26.0","","","","","","","","",""
"null","sample1.bmp","null","image-keyboard-response","27","184735","0.0-27.0","","","","","","","","",""
"null","<img src=""CC1.png"" width=200 height=200/>","null","html-keyboard-response","28","186039","0.0-28.0","","","","","","","","",""
"371.9000000001397","arrows.png","38","image-keyboard-response","29","186713","0.0-29.0","","","","","","","","",""
"null","<p style=""color: green; font-size:300%;"">correct</p>","null","html-keyboard-response","30","187714","0.0-30.0","","","","","","","","",""
"119108.6000000001","","","instructions","31","307126","0.0-31.0","","[{""page_index"":0,""viewing_time"":5782.100000000093},{""page_index"":1,""viewing_time"":1801.5},{""page_index"":2,""viewing_time"":5354.799999999814},{""page_index"":3,""viewing_time"":87995.1000000001},{""page_index"":4,""viewing_time"":2535.600000000093},{""page_index"":5,""viewing_time"":2053.0999999998603},{""page_index"":6,""viewing_time"":12046},{""page_index"":7,""viewing_time"":1540}]","","","","","","",""
"null","<div style=""font-size:60px;""> </div>","null","html-keyboard-response","32","307428","0.0-32.0-0.0","","","fixation_1","","","","","",""
"null","","null","image-keyboard-response","33","307434","0.0-32.0-1.0","","","test","rightarrow","0","1","TRUE","FALSE",""
"null","<div style=""font-size:60px;""> </div>","null","html-keyboard-response","34","307736","0.0-32.0-2.0","","","fixation_2","","","","","",""
"null","img_1.bmp","null","image-keyboard-response","35","308737","0.0-32.0-3.0","","","img_on","","","","","",""
"null","<div style=""font-size:60px;""> </div>","null","html-keyboard-response","36","309039","0.0-32.0-4.0","","","fixation_3","","","","","",""
"null","<img src=""CC1.png"" width=200 height=200/>","null","html-keyboard-response","37","310042","0.0-32.0-5.0","","","test","rightarrow","0","1","TRUE","FALSE",""
"null","<div style=""font-size:60px;""> </div>","null","html-keyboard-response","38","310345","0.0-32.0-6.0","","","fixation_4","","","","","",""
"306","arrows.png","38","image-keyboard-response","39","310652","0.0-32.0-7.0","","","test","rightarrow","0","1","TRUE","FALSE","false"
"null","<p style=""color: red; font-size:300%;"">incorrect: $0</p>","null","html-keyboard-response","40","311904","0.0-32.0-8.0","","","","","","","","",""
"null","<div style=""font-size:60px;""> </div>","null","html-keyboard-response","41","313458","0.0-32.0-0.1","","","fixation_1","","","","","",""
"null","","null","image-keyboard-response","42","313464","0.0-32.0-1.1","","","test","uparrow","0","1","TRUE","FALSE",""
"null","<div style=""font-size:60px;""> </div>","null","html-keyboard-response","43","313766","0.0-32.0-2.1","","","fixation_2","","","","","",""
"null","img_4.bmp","null","image-keyboard-response","44","314768","0.0-32.0-3.1","","","img_on","","","","","",""
"null","<div style=""font-size:60px;""> </div>","null","html-keyboard-response","45","315069","0.0-32.0-4.1","","","fixation_3","","","","","",""
"null","<img src=""CC1.png"" width=200 height=200/>","null","html-keyboard-response","46","316072","0.0-32.0-5.1","","","test","uparrow","0","1","TRUE","FALSE",""
"null","<div style=""font-size:60px;""> </div>","null","html-keyboard-response","47","316373","0.0-32.0-6.1","","","fixation_4","","","","","",""
"275.60000000009313","arrows.png","38","image-keyboard-response","48","316650","0.0-32.0-7.1","","","test","uparrow","0","1","TRUE","FALSE","true"
"null","<p style=""color: green; font-size:300%;"">correct: $2.50</p>","null","html-keyboard-response","49","317903","0.0-32.0-8.1","","","","","","","","",""
"null","<div style=""font-size:60px;""> </div>","null","html-keyboard-response","50","318705","0.0-32.0-0.2","","","fixation_1","","","","","",""
"null","","null","image-keyboard-response","51","318711","0.0-32.0-1.2","","","test","leftarrow","1","1","TRUE","FALSE",""
"null","<div style=""font-size:60px;""> </div>","null","html-keyboard-response","52","319013","0.0-32.0-2.2","","","fixation_2","","","","","",""
"null","img_3.bmp","null","image-keyboard-response","53","320014","0.0-32.0-3.2","","","img_on","","","","","",""
"null","<div style=""font-size:60px;""> </div>","null","html-keyboard-response","54","320317","0.0-32.0-4.2","","","fixation_3","","","","","",""
"null","<img src=""CC1.png"" width=200 height=200/>","null","html-keyboard-response","55","321322","0.0-32.0-5.2","","","test","leftarrow","1","1","TRUE","FALSE",""
"null","<div style=""font-size:60px;""> </div>","null","html-keyboard-response","56","321624","0.0-32.0-6.2","","","fixation_4","","","","","",""
"307.5999999998603","arrows.png","37","image-keyboard-response","57","321933","0.0-32.0-7.2","","","test","leftarrow","1","1","TRUE","FALSE","true"
"null","<p style=""color: green; font-size:300%;"">correct: $7.50</p>","null","html-keyboard-response","58","323186","0.0-32.0-8.2","","","","","","","","",""
"null","<div style=""font-size:60px;""> </div>","null","html-keyboard-response","59","324239","0.0-32.0-0.3","","","fixation_1","","","","","",""
"null","","null","image-keyboard-response","60","324245","0.0-32.0-1.3","","","test","downarrow","1","1","TRUE","FALSE",""
"null","<div style=""font-size:60px;""> </div>","null","html-keyboard-response","61","324547","0.0-32.0-2.3","","","fixation_2","","","","","",""
"null","img_2.bmp","null","image-keyboard-response","62","325549","0.0-32.0-3.3","","","img_on","","","","","",""
"null","<div style=""font-size:60px;""> </div>","null","html-keyboard-response","63","325850","0.0-32.0-4.3","","","fixation_3","","","","","",""
"null","<img src=""CC1.png"" width=200 height=200/>","null","html-keyboard-response","64","326853","0.0-32.0-5.3","","","test","downarrow","1","1","TRUE","FALSE",""
"null","<div style=""font-size:60px;""> </div>","null","html-keyboard-response","65","327154","0.0-32.0-6.3","","","fixation_4","","","","","",""
"35.800000000046566","arrows.png","39","image-keyboard-response","66","327192","0.0-32.0-7.3","","","test","downarrow","1","1","TRUE","FALSE","false"
"null","<p style=""color: red; font-size:300%;"">incorrect: $0</p>","null","html-keyboard-response","67","328445","0.0-32.0-8.3","","","","","","","","",""
"null","<div style=""font-size:60px;""> </div>","null","html-keyboard-response","68","329997","0.0-32.0-0.4","","","fixation_1","","","","","",""
"null","","null","image-keyboard-response","69","330004","0.0-32.0-1.4","","","test","uparrow","0","1","FALSE","FALSE",""
"null","<div style=""font-size:60px;""> </div>","null","html-keyboard-response","70","330310","0.0-32.0-2.4","","","fixation_2","","","","","",""
"null","img_4.bmp","null","image-keyboard-response","71","331312","0.0-32.0-3.4","","","img_on","","","","","",""
"null","<div style=""font-size:60px;""> </div>","null","html-keyboard-response","72","331614","0.0-32.0-4.4","","","fixation_3","","","","","",""
"null","","null","html-keyboard-response","73","331619","0.0-32.0-5.4","","","test","uparrow","0","1","FALSE","FALSE",""
"null","<div style=""font-size:60px;""> </div>","null","html-keyboard-response","74","331920","0.0-32.0-6.4","","","fixation_4","","","","","",""
"637.3999999999069","arrows.png","38","image-keyboard-response","75","332559","0.0-32.0-7.4","","","test","uparrow","0","1","FALSE","FALSE","true"
"null","<p style=""color: green; font-size:300%;"">correct: $2.50</p>","null","html-keyboard-response","76","333812","0.0-32.0-8.4","","","","","","","","",""
"null","<div style=""font-size:60px;""> </div>","null","html-keyboard-response","77","335115","0.0-32.0-0.5","","","fixation_1","","","","","",""
"null","","null","image-keyboard-response","78","335121","0.0-32.0-1.5","","","test","leftarrow","1","1","FALSE","FALSE",""
"null","<div style=""font-size:60px;""> </div>","null","html-keyboard-response","79","335423","0.0-32.0-2.5","","","fixation_2","","","","","",""
"null","img_3.bmp","null","image-keyboard-response","80","336425","0.0-32.0-3.5","","","img_on","","","","","",""
"null","<div style=""font-size:60px;""> </div>","null","html-keyboard-response","81","336727","0.0-32.0-4.5","","","fixation_3","","","","","",""
"null","","null","html-keyboard-response","82","336733","0.0-32.0-5.5","","","test","leftarrow","1","1","FALSE","FALSE",""
"null","<div style=""font-size:60px;""> </div>","null","html-keyboard-response","83","337035","0.0-32.0-6.5","","","fixation_4","","","","","",""
"427.60000000009313","arrows.png","37","image-keyboard-response","84","337464","0.0-32.0-7.5","","","test","leftarrow","1","1","FALSE","FALSE","true"
"null","<p style=""color: green; font-size:300%;"">correct: $7.50</p>","null","html-keyboard-response","85","338717","0.0-32.0-8.5","","","","","","","","",""
"null","<div style=""font-size:60px;""> </div>","null","html-keyboard-response","86","340020","0.0-32.0-0.6","","","fixation_1","","","","","",""
"null","","null","image-keyboard-response","87","340027","0.0-32.0-1.6","","","test","rightarrow","0","1","FALSE","FALSE",""
"null","<div style=""font-size:60px;""> </div>","null","html-keyboard-response","88","340328","0.0-32.0-2.6","","","fixation_2","","","","","",""
"null","img_1.bmp","null","image-keyboard-response","89","341330","0.0-32.0-3.6","","","img_on","","","","","",""
"null","<div style=""font-size:60px;""> </div>","null","html-keyboard-response","90","341632","0.0-32.0-4.6","","","fixation_3","","","","","",""
"null","","null","html-keyboard-response","91","341637","0.0-32.0-5.6","","","test","rightarrow","0","1","FALSE","FALSE",""
"null","<div style=""font-size:60px;""> </div>","null","html-keyboard-response","92","341939","0.0-32.0-6.6","","","fixation_4","","","","","",""
"440","arrows.png","40","image-keyboard-response","93","342380","0.0-32.0-7.6","","","test","rightarrow","0","1","FALSE","FALSE","false"
"null","<p style=""color: red; font-size:300%;"">incorrect: $0</p>","null","html-keyboard-response","94","343634","0.0-32.0-8.6","","","","","","","","",""
"null","<div style=""font-size:60px;""> </div>","null","html-keyboard-response","95","344687","0.0-32.0-0.7","","","fixation_1","","","","","",""
"null","","null","image-keyboard-response","96","344693","0.0-32.0-1.7","","","test","downarrow","1","1","FALSE","FALSE",""
"null","<div style=""font-size:60px;""> </div>","null","html-keyboard-response","97","344994","0.0-32.0-2.7","","","fixation_2","","","","","",""
"null","img_2.bmp","null","image-keyboard-response","98","345996","0.0-32.0-3.7","","","img_on","","","","","",""
"null","<div style=""font-size:60px;""> </div>","null","html-keyboard-response","99","346298","0.0-32.0-4.7","","","fixation_3","","","","","",""
"null","","null","html-keyboard-response","100","346304","0.0-32.0-5.7","","","test","downarrow","1","1","FALSE","FALSE",""
"null","<div style=""font-size:60px;""> </div>","null","html-keyboard-response","101","346605","0.0-32.0-6.7","","","fixation_4","","","","","",""
"275.39999999990687","arrows.png","40","image-keyboard-response","102","346882","0.0-32.0-7.7","","","test","downarrow","1","1","FALSE","FALSE","true"
"null","<p style=""color: green; font-size:300%;"">correct: $7.50</p>","null","html-keyboard-response","103","348134","0.0-32.0-8.7","","","","","","","","",""
"null","<div style=""font-size:60px;""> </div>","null","html-keyboard-response","104","349437","0.0-32.0-0.8","","","fixation_1","","","","","",""
"null","","null","image-keyboard-response","105","349443","0.0-32.0-1.8","","","test","leftarrow","1","1","FALSE","FALSE",""
"null","<div style=""font-size:60px;""> </div>","null","html-keyboard-response","106","349745","0.0-32.0-2.8","","","fixation_2","","","","","",""
"null","img_3.bmp","null","image-keyboard-response","107","350748","0.0-32.0-3.8","","","img_on","","","","","",""
"null","<div style=""font-size:60px;""> </div>","null","html-keyboard-response","108","351050","0.0-32.0-4.8","","","fixation_3","","","","","",""
"null","","null","html-keyboard-response","109","351057","0.0-32.0-5.8","","","test","leftarrow","1","1","FALSE","FALSE",""
"null","<div style=""font-size:60px;""> </div>","null","html-keyboard-response","110","351358","0.0-32.0-6.8","","","fixation_4","","","","","",""
"497.0999999998603","arrows.png","37","image-keyboard-response","111","351857","0.0-32.0-7.8","","","test","leftarrow","1","1","FALSE","FALSE","true"
"null","<p style=""color: green; font-size:300%;"">correct: $7.50</p>","null","html-keyboard-response","112","353110","0.0-32.0-8.8","","","","","","","","",""
"null","<div style=""font-size:60px;""> </div>","null","html-keyboard-response","113","354413","0.0-32.0-0.9","","","fixation_1","","","","","",""
"null","","null","image-keyboard-response","114","354420","0.0-32.0-1.9","","","test","uparrow","0","1","FALSE","FALSE",""
"null","<div style=""font-size:60px;""> </div>","null","html-keyboard-response","115","354721","0.0-32.0-2.9","","","fixation_2","","","","","",""
"null","img_4.bmp","null","image-keyboard-response","116","355723","0.0-32.0-3.9","","","img_on","","","","","",""
"null","<div style=""font-size:60px;""> </div>","null","html-keyboard-response","117","356024","0.0-32.0-4.9","","","fixation_3","","","","","",""
"null","","null","html-keyboard-response","118","356030","0.0-32.0-5.9","","","test","uparrow","0","1","FALSE","FALSE",""
"null","<div style=""font-size:60px;""> </div>","null","html-keyboard-response","119","356331","0.0-32.0-6.9","","","fixation_4","","","","","",""
"306.30000000004657","arrows.png","38","image-keyboard-response","120","356639","0.0-32.0-7.9","","","test","uparrow","0","1","FALSE","FALSE","true"
"null","<p style=""color: green; font-size:300%;"">correct: $2.50</p>","null","html-keyboard-response","121","357892","0.0-32.0-8.9","","","","","","","","",""
"null","<div style=""font-size:60px;""> </div>","null","html-keyboard-response","122","359195","0.0-32.0-0.10","","","fixation_1","","","","","",""
"null","","null","image-keyboard-response","123","359201","0.0-32.0-1.10","","","test","downarrow","1","1","FALSE","FALSE",""
"null","<div style=""font-size:60px;""> </div>","null","html-keyboard-response","124","359503","0.0-32.0-2.10","","","fixation_2","","","","","",""
"null","img_2.bmp","null","image-keyboard-response","125","360506","0.0-32.0-3.10","","","img_on","","","","","",""
"null","<div style=""font-size:60px;""> </div>","null","html-keyboard-response","126","360808","0.0-32.0-4.10","","","fixation_3","","","","","",""
"null","","null","html-keyboard-response","127","360814","0.0-32.0-5.10","","","test","downarrow","1","1","FALSE","FALSE",""
"null","<div style=""font-size:60px;""> </div>","null","html-keyboard-response","128","361115","0.0-32.0-6.10","","","fixation_4","","","","","",""
"344.79999999981374","arrows.png","40","image-keyboard-response","129","361461","0.0-32.0-7.10","","","test","downarrow","1","1","FALSE","FALSE","true"
"null","<p style=""color: green; font-size:300%;"">correct: $7.50</p>","null","html-keyboard-response","130","362714","0.0-32.0-8.10","","","","","","","","",""
"null","<div style=""font-size:60px;""> </div>","null","html-keyboard-response","131","363266","0.0-32.0-0.11","","","fixation_1","","","","","",""
"null","","null","image-keyboard-response","132","363273","0.0-32.0-1.11","","","test","rightarrow","0","1","FALSE","FALSE",""
"null","<div style=""font-size:60px;""> </div>","null","html-keyboard-response","133","363574","0.0-32.0-2.11","","","fixation_2","","","","","",""
"null","img_1.bmp","null","image-keyboard-response","134","364576","0.0-32.0-3.11","","","img_on","","","","","",""
"null","<div style=""font-size:60px;""> </div>","null","html-keyboard-response","135","364879","0.0-32.0-4.11","","","fixation_3","","","","","",""
"null","","null","html-keyboard-response","136","364884","0.0-32.0-5.11","","","test","rightarrow","0","1","FALSE","FALSE",""
"null","<div style=""font-size:60px;""> </div>","null","html-keyboard-response","137","365186","0.0-32.0-6.11","","","fixation_4","","","","","",""
"300.5","arrows.png","39","image-keyboard-response","138","365488","0.0-32.0-7.11","","","test","rightarrow","0","1","FALSE","FALSE","true"
"null","<p style=""color: green; font-size:300%;"">correct: $2.50</p>","null","html-keyboard-response","139","366740","0.0-32.0-8.11","","","","","","","","",""
"null","<div style=""font-size:60px;""> </div>","null","html-keyboard-response","140","368291","0.0-32.0-0.12","","","fixation_1","","","","","",""
"null","","null","image-keyboard-response","141","368299","0.0-32.0-1.12","","","test","downarrow","1","1","FALSE","FALSE",""
"null","<div style=""font-size:60px;""> </div>","null","html-keyboard-response","142","368600","0.0-32.0-2.12","","","fixation_2","","","","","",""
"null","img_2.bmp","null","image-keyboard-response","143","369605","0.0-32.0-3.12","","","img_on","","","","","",""
"null","<div style=""font-size:60px;""> </div>","null","html-keyboard-response","144","369908","0.0-32.0-4.12","","","fixation_3","","","","","",""
"null","","null","html-keyboard-response","145","369914","0.0-32.0-5.12","","","test","downarrow","1","1","FALSE","FALSE",""
"null","<div style=""font-size:60px;""> </div>","null","html-keyboard-response","146","370217","0.0-32.0-6.12","","","fixation_4","","","","","",""
"270.4000000001397","arrows.png","40","image-keyboard-response","147","370490","0.0-32.0-7.12","","","test","downarrow","1","1","FALSE","FALSE","true"
"null","<p style=""color: green; font-size:300%;"">correct: $7.50</p>","null","html-keyboard-response","148","371743","0.0-32.0-8.12","","","","","","","","",""
"null","<div style=""font-size:60px;""> </div>","null","html-keyboard-response","149","373297","0.0-32.0-0.13","","","fixation_1","","","","","",""
"null","","null","image-keyboard-response","150","373303","0.0-32.0-1.13","","","test","leftarrow","1","1","FALSE","FALSE",""
"null","<div style=""font-size:60px;""> </div>","null","html-keyboard-response","151","373605","0.0-32.0-2.13","","","fixation_2","","","","","",""
"null","img_3.bmp","null","image-keyboard-response","152","374607","0.0-32.0-3.13","","","img_on","","","","","",""
"null","<div style=""font-size:60px;""> </div>","null","html-keyboard-response","153","374909","0.0-32.0-4.13","","","fixation_3","","","","","",""
"null","","null","html-keyboard-response","154","374915","0.0-32.0-5.13","","","test","leftarrow","1","1","FALSE","FALSE",""
"null","<div style=""font-size:60px;""> </div>","null","html-keyboard-response","155","375217","0.0-32.0-6.13","","","fixation_4","","","","","",""
"304.69999999995343","arrows.png","37","image-keyboard-response","156","375524","0.0-32.0-7.13","","","test","leftarrow","1","1","FALSE","FALSE","true"
"null","<p style=""color: green; font-size:300%;"">correct: $7.50</p>","null","html-keyboard-response","157","376777","0.0-32.0-8.13","","","","","","","","",""
"null","<div style=""font-size:60px;""> </div>","null","html-keyboard-response","158","378329","0.0-32.0-0.14","","","fixation_1","","","","","",""
"null","","null","image-keyboard-response","159","378337","0.0-32.0-1.14","","","test","rightarrow","0","1","FALSE","FALSE",""
"null","<div style=""font-size:60px;""> </div>","null","html-keyboard-response","160","378639","0.0-32.0-2.14","","","fixation_2","","","","","",""
"null","img_1.bmp","null","image-keyboard-response","161","379642","0.0-32.0-3.14","","","img_on","","","","","",""
"null","<div style=""font-size:60px;""> </div>","null","html-keyboard-response","162","379944","0.0-32.0-4.14","","","fixation_3","","","","","",""
"null","","null","html-keyboard-response","163","379950","0.0-32.0-5.14","","","test","rightarrow","0","1","FALSE","FALSE",""
"null","<div style=""font-size:60px;""> </div>","null","html-keyboard-response","164","380252","0.0-32.0-6.14","","","fixation_4","","","","","",""
"292.19999999995343","arrows.png","39","image-keyboard-response","165","380546","0.0-32.0-7.14","","","test","rightarrow","0","1","FALSE","FALSE","true"
"null","<p style=""color: green; font-size:300%;"">correct: $2.50</p>","null","html-keyboard-response","166","381798","0.0-32.0-8.14","","","","","","","","",""
"null","<div style=""font-size:60px;""> </div>","null","html-keyboard-response","167","383351","0.0-32.0-0.15","","","fixation_1","","","","","",""
"null","","null","image-keyboard-response","168","383357","0.0-32.0-1.15","","","test","uparrow","0","1","FALSE","FALSE",""
"null","<div style=""font-size:60px;""> </div>","null","html-keyboard-response","169","383661","0.0-32.0-2.15","","","fixation_2","","","","","",""
"null","img_4.bmp","null","image-keyboard-response","170","384663","0.0-32.0-3.15","","","img_on","","","","","",""
"null","<div style=""font-size:60px;""> </div>","null","html-keyboard-response","171","384965","0.0-32.0-4.15","","","fixation_3","","","","","",""
"null","","null","html-keyboard-response","172","384971","0.0-32.0-5.15","","","test","uparrow","0","1","FALSE","FALSE",""
"null","<div style=""font-size:60px;""> </div>","null","html-keyboard-response","173","385273","0.0-32.0-6.15","","","fixation_4","","","","","",""
"281.89999999990687","arrows.png","38","image-keyboard-response","174","385557","0.0-32.0-7.15","","","test","uparrow","0","1","FALSE","FALSE","true"
"null","<p style=""color: green; font-size:300%;"">correct: $2.50</p>","null","html-keyboard-response","175","386809","0.0-32.0-8.15","","","","","","","","",""
"null","<div style=""font-size:60px;""> </div>","null","html-keyboard-response","176","387612","0.0-32.0-0.16","","","fixation_1","","","","","",""
"null","","null","image-keyboard-response","177","387619","0.0-32.0-1.16","","","test","leftarrow","1","1","FALSE","FALSE",""
"null","<div style=""font-size:60px;""> </div>","null","html-keyboard-response","178","387921","0.0-32.0-2.16","","","fixation_2","","","","","",""
"null","img_3.bmp","null","image-keyboard-response","179","388923","0.0-32.0-3.16","","","img_on","","","","","",""
"null","<div style=""font-size:60px;""> </div>","null","html-keyboard-response","180","389225","0.0-32.0-4.16","","","fixation_3","","","","","",""
"null","","null","html-keyboard-response","181","389231","0.0-32.0-5.16","","","test","leftarrow","1","1","FALSE","FALSE",""
"null","<div style=""font-size:60px;""> </div>","null","html-keyboard-response","182","389532","0.0-32.0-6.16","","","fixation_4","","","","","",""
"394.5","arrows.png","37","image-keyboard-response","183","389928","0.0-32.0-7.16","","","test","leftarrow","1","1","FALSE","FALSE","true"
"null","<p style=""color: green; font-size:300%;"">correct: $7.50</p>","null","html-keyboard-response","184","391181","0.0-32.0-8.16","","","","","","","","",""
"null","<div style=""font-size:60px;""> </div>","null","html-keyboard-response","185","392484","0.0-32.0-0.17","","","fixation_1","","","","","",""
"null","","null","image-keyboard-response","186","392490","0.0-32.0-1.17","","","test","uparrow","0","1","FALSE","FALSE",""
"null","<div style=""font-size:60px;""> </div>","null","html-keyboard-response","187","392791","0.0-32.0-2.17","","","fixation_2","","","","","",""
"null","img_4.bmp","null","image-keyboard-response","188","393794","0.0-32.0-3.17","","","img_on","","","","","",""
"null","<div style=""font-size:60px;""> </div>","null","html-keyboard-response","189","394095","0.0-32.0-4.17","","","fixation_3","","","","","",""
"null","","null","html-keyboard-response","190","394101","0.0-32.0-5.17","","","test","uparrow","0","1","FALSE","FALSE",""
"null","<div style=""font-size:60px;""> </div>","null","html-keyboard-response","191","394403","0.0-32.0-6.17","","","fixation_4","","","","","",""
"312.69999999995343","arrows.png","38","image-keyboard-response","192","394717","0.0-32.0-7.17","","","test","uparrow","0","1","FALSE","FALSE","true"
"null","<p style=""color: green; font-size:300%;"">correct: $2.50</p>","null","html-keyboard-response","193","395969","0.0-32.0-8.17","","","","","","","","",""
"null","<div style=""font-size:60px;""> </div>","null","html-keyboard-response","194","396521","0.0-32.0-0.18","","","fixation_1","","","","","",""
"null","","null","image-keyboard-response","195","396527","0.0-32.0-1.18","","","test","downarrow","1","1","FALSE","FALSE",""
"null","<div style=""font-size:60px;""> </div>","null","html-keyboard-response","196","396829","0.0-32.0-2.18","","","fixation_2","","","","","",""
"null","img_2.bmp","null","image-keyboard-response","197","397831","0.0-32.0-3.18","","","img_on","","","","","",""
"null","<div style=""font-size:60px;""> </div>","null","html-keyboard-response","198","398134","0.0-32.0-4.18","","","fixation_3","","","","","",""
"null","","null","html-keyboard-response","199","398139","0.0-32.0-5.18","","","test","downarrow","1","1","FALSE","FALSE",""
"null","<div style=""font-size:60px;""> </div>","null","html-keyboard-response","200","398442","0.0-32.0-6.18","","","fixation_4","","","","","",""
"573","arrows.png","40","image-keyboard-response","201","399017","0.0-32.0-7.18","","","test","downarrow","1","1","FALSE","FALSE","true"
"null","<p style=""color: green; font-size:300%;"">correct: $7.50</p>","null","html-keyboard-response","202","400270","0.0-32.0-8.18","","","","","","","","",""
"null","<div style=""font-size:60px;""> </div>","null","html-keyboard-response","203","401824","0.0-32.0-0.19","","","fixation_1","","","","","",""
"null","switch_cue.png","null","image-keyboard-response","204","402828","0.0-32.0-1.19","","","test","rightarrow","0","1","TRUE","TRUE",""
"null","<div style=""font-size:60px;""> </div>","null","html-keyboard-response","205","403129","0.0-32.0-2.19","","","fixation_2","","","","","",""
"null","img_1.bmp","null","image-keyboard-response","206","404131","0.0-32.0-3.19","","","img_on","","","","","",""
"null","<div style=""font-size:60px;""> </div>","null","html-keyboard-response","207","404434","0.0-32.0-4.19","","","fixation_3","","","","","",""
"null","<img src=""CC1.png"" width=200 height=200/>","null","html-keyboard-response","208","405437","0.0-32.0-5.19","","","test","rightarrow","0","1","TRUE","TRUE",""
"null","<div style=""font-size:60px;""> </div>","null","html-keyboard-response","209","405739","0.0-32.0-6.19","","","fixation_4","","","","","",""
"37.199999999953434","arrows.png","39","image-keyboard-response","210","405778","0.0-32.0-7.19","","","test","rightarrow","0","1","TRUE","TRUE","true"
"null","<p style=""color: green; font-size:300%;"">correct: $2.50</p>","null","html-keyboard-response","211","407031","0.0-32.0-8.19","","","","","","","","",""
"null","<div style=""font-size:60px;""> </div>","null","html-keyboard-response","212","408334","0.0-32.0-0.20","","","fixation_1","","","","","",""
"null","switch_cue.png","null","image-keyboard-response","213","409337","0.0-32.0-1.20","","","test","uparrow","1","2","TRUE","TRUE",""
"null","<div style=""font-size:60px;""> </div>","null","html-keyboard-response","214","409639","0.0-32.0-2.20","","","fixation_2","","","","","",""
"null","img_1.bmp","null","image-keyboard-response","215","410641","0.0-32.0-3.20","","","img_on","","","","","",""
"null","<div style=""font-size:60px;""> </div>","null","html-keyboard-response","216","410943","0.0-32.0-4.20","","","fixation_3","","","","","",""
"null","<img src=""CC2.png"" width=200 height=200/>","null","html-keyboard-response","217","411947","0.0-32.0-5.20","","","test","uparrow","1","2","TRUE","TRUE",""
"null","<div style=""font-size:60px;""> </div>","null","html-keyboard-response","218","412248","0.0-32.0-6.20","","","fixation_4","","","","","",""
"357.5","arrows.png","39","image-keyboard-response","219","412608","0.0-32.0-7.20","","","test","uparrow","1","2","TRUE","TRUE","false"
"null","<p style=""color: red; font-size:300%;"">incorrect: $0</p>","null","html-keyboard-response","220","413861","0.0-32.0-8.20","","","","","","","","",""
"null","<div style=""font-size:60px;""> </div>","null","html-keyboard-response","221","415413","0.0-32.0-0.21","","","fixation_1","","","","","",""
"null","","null","image-keyboard-response","222","415419","0.0-32.0-1.21","","","test","rightarrow","1","2","TRUE","FALSE",""
"null","<div style=""font-size:60px;""> </div>","null","html-keyboard-response","223","415721","0.0-32.0-2.21","","","fixation_2","","","","","",""
"null","img_2.bmp","null","image-keyboard-response","224","416724","0.0-32.0-3.21","","","img_on","","","","","",""
"null","<div style=""font-size:60px;""> </div>","null","html-keyboard-response","225","417027","0.0-32.0-4.21","","","fixation_3","","","","","",""
"null","<img src=""CC2.png"" width=200 height=200/>","null","html-keyboard-response","226","418029","0.0-32.0-5.21","","","test","rightarrow","1","2","TRUE","FALSE",""
"null","<div style=""font-size:60px;""> </div>","null","html-keyboard-response","227","418331","0.0-32.0-6.21","","","fixation_4","","","","","",""
"246","arrows.png","38","image-keyboard-response","228","418579","0.0-32.0-7.21","","","test","rightarrow","1","2","TRUE","FALSE","false"
"null","<p style=""color: red; font-size:300%;"">incorrect: $0</p>","null","html-keyboard-response","229","419831","0.0-32.0-8.21","","","","","","","","",""
"null","<div style=""font-size:60px;""> </div>","null","html-keyboard-response","230","420884","0.0-32.0-0.22","","","fixation_1","","","","","",""
"null","","null","image-keyboard-response","231","420890","0.0-32.0-1.22","","","test","leftarrow","0","2","TRUE","FALSE",""
"null","<div style=""font-size:60px;""> </div>","null","html-keyboard-response","232","421192","0.0-32.0-2.22","","","fixation_2","","","","","",""
"null","img_4.bmp","null","image-keyboard-response","233","422194","0.0-32.0-3.22","","","img_on","","","","","",""
"null","<div style=""font-size:60px;""> </div>","null","html-keyboard-response","234","422496","0.0-32.0-4.22","","","fixation_3","","","","","",""
"null","<img src=""CC2.png"" width=200 height=200/>","null","html-keyboard-response","235","423499","0.0-32.0-5.22","","","test","leftarrow","0","2","TRUE","FALSE",""
"null","<div style=""font-size:60px;""> </div>","null","html-keyboard-response","236","423800","0.0-32.0-6.22","","","fixation_4","","","","","",""
"435.5999999998603","arrows.png","37","image-keyboard-response","237","424238","0.0-32.0-7.22","","","test","leftarrow","0","2","TRUE","FALSE","true"
"null","<p style=""color: green; font-size:300%;"">correct: $2.50</p>","null","html-keyboard-response","238","425491","0.0-32.0-8.22","","","","","","","","",""
"null","<div style=""font-size:60px;""> </div>","null","html-keyboard-response","239","427044","0.0-32.0-0.23","","","fixation_1","","","","","",""
"null","","null","image-keyboard-response","240","427050","0.0-32.0-1.23","","","test","downarrow","0","2","TRUE","FALSE",""
"null","<div style=""font-size:60px;""> </div>","null","html-keyboard-response","241","427352","0.0-32.0-2.23","","","fixation_2","","","","","",""
"null","img_3.bmp","null","image-keyboard-response","242","428354","0.0-32.0-3.23","","","img_on","","","","","",""
"null","<div style=""font-size:60px;""> </div>","null","html-keyboard-response","243","428656","0.0-32.0-4.23","","","fixation_3","","","","","",""
"null","<img src=""CC2.png"" width=200 height=200/>","null","html-keyboard-response","244","429659","0.0-32.0-5.23","","","test","downarrow","0","2","TRUE","FALSE",""
"null","<div style=""font-size:60px;""> </div>","null","html-keyboard-response","245","429961","0.0-32.0-6.23","","","fixation_4","","","","","",""
"232.5","arrows.png","38","image-keyboard-response","246","430195","0.0-32.0-7.23","","","test","downarrow","0","2","TRUE","FALSE","false"
"null","<p style=""color: red; font-size:300%;"">incorrect: $0</p>","null","html-keyboard-response","247","431448","0.0-32.0-8.23","","","","","","","","",""
"null","<div style=""font-size:60px;""> </div>","null","html-keyboard-response","248","432251","0.0-32.0-0.24","","","fixation_1","","","","","",""
"null","","null","image-keyboard-response","249","432257","0.0-32.0-1.24","","","test","uparrow","1","2","FALSE","FALSE",""
"null","<div style=""font-size:60px;""> </div>","null","html-keyboard-response","250","432559","0.0-32.0-2.24","","","fixation_2","","","","","",""
"null","img_1.bmp","null","image-keyboard-response","251","433562","0.0-32.0-3.24","","","img_on","","","","","",""
"null","<div style=""font-size:60px;""> </div>","null","html-keyboard-response","252","433864","0.0-32.0-4.24","","","fixation_3","","","","","",""
"null","","null","html-keyboard-response","253","433870","0.0-32.0-5.24","","","test","uparrow","1","2","FALSE","FALSE",""
"null","<div style=""font-size:60px;""> </div>","null","html-keyboard-response","254","434172","0.0-32.0-6.24","","","fixation_4","","","","","",""
"584.0999999998603","arrows.png","38","image-keyboard-response","255","434758","0.0-32.0-7.24","","","test","uparrow","1","2","FALSE","FALSE","true"
"null","<p style=""color: green; font-size:300%;"">correct: $7.50</p>","null","html-keyboard-response","256","436012","0.0-32.0-8.24","","","","","","","","",""
"null","<div style=""font-size:60px;""> </div>","null","html-keyboard-response","257","437565","0.0-32.0-0.25","","","fixation_1","","","","","",""
"null","","null","image-keyboard-response","258","437572","0.0-32.0-1.25","","","test","downarrow","0","2","FALSE","FALSE",""
"null","<div style=""font-size:60px;""> </div>","null","html-keyboard-response","259","437875","0.0-32.0-2.25","","","fixation_2","","","","","",""
"null","img_3.bmp","null","image-keyboard-response","260","438877","0.0-32.0-3.25","","","img_on","","","","","",""
"null","<div style=""font-size:60px;""> </div>","null","html-keyboard-response","261","439180","0.0-32.0-4.25","","","fixation_3","","","","","",""
"null","","null","html-keyboard-response","262","439185","0.0-32.0-5.25","","","test","downarrow","0","2","FALSE","FALSE",""
"null","<div style=""font-size:60px;""> </div>","null","html-keyboard-response","263","439486","0.0-32.0-6.25","","","fixation_4","","","","","",""
"500.29999999981374","arrows.png","39","image-keyboard-response","264","439988","0.0-32.0-7.25","","","test","downarrow","0","2","FALSE","FALSE","false"
"null","<p style=""color: red; font-size:300%;"">incorrect: $0</p>","null","html-keyboard-response","265","441244","0.0-32.0-8.25","","","","","","","","",""
"null","<div style=""font-size:60px;""> </div>","null","html-keyboard-response","266","442047","0.0-32.0-0.26","","","fixation_1","","","","","",""
"null","","null","image-keyboard-response","267","442053","0.0-32.0-1.26","","","test","rightarrow","1","2","FALSE","FALSE",""
"null","<div style=""font-size:60px;""> </div>","null","html-keyboard-response","268","442355","0.0-32.0-2.26","","","fixation_2","","","","","",""
"null","img_2.bmp","null","image-keyboard-response","269","443358","0.0-32.0-3.26","","","img_on","","","","","",""
"null","<div style=""font-size:60px;""> </div>","null","html-keyboard-response","270","443659","0.0-32.0-4.26","","","fixation_3","","","","","",""
"null","","null","html-keyboard-response","271","443664","0.0-32.0-5.26","","","test","rightarrow","1","2","FALSE","FALSE",""
"null","<div style=""font-size:60px;""> </div>","null","html-keyboard-response","272","443966","0.0-32.0-6.26","","","fixation_4","","","","","",""
"448.19999999995343","arrows.png","39","image-keyboard-response","273","444416","0.0-32.0-7.26","","","test","rightarrow","1","2","FALSE","FALSE","true"
"null","<p style=""color: green; font-size:300%;"">correct: $7.50</p>","null","html-keyboard-response","274","445669","0.0-32.0-8.26","","","","","","","","",""
"null","<div style=""font-size:60px;""> </div>","null","html-keyboard-response","275","447222","0.0-32.0-0.27","","","fixation_1","","","","","",""
"null","","null","image-keyboard-response","276","447228","0.0-32.0-1.27","","","test","leftarrow","0","2","FALSE","FALSE",""
"null","<div style=""font-size:60px;""> </div>","null","html-keyboard-response","277","447530","0.0-32.0-2.27","","","fixation_2","","","","","",""
"null","img_4.bmp","null","image-keyboard-response","278","448532","0.0-32.0-3.27","","","img_on","","","","","",""
"null","<div style=""font-size:60px;""> </div>","null","html-keyboard-response","279","448834","0.0-32.0-4.27","","","fixation_3","","","","","",""
"null","","null","html-keyboard-response","280","448840","0.0-32.0-5.27","","","test","leftarrow","0","2","FALSE","FALSE",""
"null","<div style=""font-size:60px;""> </div>","null","html-keyboard-response","281","449142","0.0-32.0-6.27","","","fixation_4","","","","","",""
"7.300000000046566","arrows.png","37","image-keyboard-response","282","449151","0.0-32.0-7.27","","","test","leftarrow","0","2","FALSE","FALSE","true"
"null","<p style=""color: green; font-size:300%;"">correct: $2.50</p>","null","html-keyboard-response","283","450404","0.0-32.0-8.27","","","","","","","","",""
"null","<div style=""font-size:60px;""> </div>","null","html-keyboard-response","284","451207","0.0-32.0-0.28","","","fixation_1","","","","","",""
"null","","null","image-keyboard-response","285","451213","0.0-32.0-1.28","","","test","downarrow","0","2","FALSE","FALSE",""
"null","<div style=""font-size:60px;""> </div>","null","html-keyboard-response","286","451515","0.0-32.0-2.28","","","fixation_2","","","","","",""
"null","img_3.bmp","null","image-keyboard-response","287","452517","0.0-32.0-3.28","","","img_on","","","","","",""
"null","<div style=""font-size:60px;""> </div>","null","html-keyboard-response","288","452820","0.0-32.0-4.28","","","fixation_3","","","","","",""
"null","","null","html-keyboard-response","289","452825","0.0-32.0-5.28","","","test","downarrow","0","2","FALSE","FALSE",""
"null","<div style=""font-size:60px;""> </div>","null","html-keyboard-response","290","453125","0.0-32.0-6.28","","","fixation_4","","","","","",""
"544.7999999998137","arrows.png","40","image-keyboard-response","291","453672","0.0-32.0-7.28","","","test","downarrow","0","2","FALSE","FALSE","true"
"null","<p style=""color: green; font-size:300%;"">correct: $2.50</p>","null","html-keyboard-response","292","454925","0.0-32.0-8.28","","","","","","","","",""
"null","<div style=""font-size:60px;""> </div>","null","html-keyboard-response","293","456228","0.0-32.0-0.29","","","fixation_1","","","","","",""
"null","","null","image-keyboard-response","294","456235","0.0-32.0-1.29","","","test","rightarrow","1","2","FALSE","FALSE",""
"null","<div style=""font-size:60px;""> </div>","null","html-keyboard-response","295","456537","0.0-32.0-2.29","","","fixation_2","","","","","",""
"null","img_2.bmp","null","image-keyboard-response","296","457540","0.0-32.0-3.29","","","img_on","","","","","",""
"null","<div style=""font-size:60px;""> </div>","null","html-keyboard-response","297","457842","0.0-32.0-4.29","","","fixation_3","","","","","",""
"null","","null","html-keyboard-response","298","457848","0.0-32.0-5.29","","","test","rightarrow","1","2","FALSE","FALSE",""
"null","<div style=""font-size:60px;""> </div>","null","html-keyboard-response","299","458150","0.0-32.0-6.29","","","fixation_4","","","","","",""
"437.69999999995343","arrows.png","39","image-keyboard-response","300","458589","0.0-32.0-7.29","","","test","rightarrow","1","2","FALSE","FALSE","true"
"null","<p style=""color: green; font-size:300%;"">correct: $7.50</p>","null","html-keyboard-response","301","459842","0.0-32.0-8.29","","","","","","","","",""
"null","<div style=""font-size:60px;""> </div>","null","html-keyboard-response","302","461146","0.0-32.0-0.30","","","fixation_1","","","","","",""
"null","","null","image-keyboard-response","303","461152","0.0-32.0-1.30","","","test","leftarrow","0","2","FALSE","FALSE",""
"null","<div style=""font-size:60px;""> </div>","null","html-keyboard-response","304","461454","0.0-32.0-2.30","","","fixation_2","","","","","",""
"null","img_4.bmp","null","image-keyboard-response","305","462457","0.0-32.0-3.30","","","img_on","","","","","",""
"null","<div style=""font-size:60px;""> </div>","null","html-keyboard-response","306","462759","0.0-32.0-4.30","","","fixation_3","","","","","",""
"null","","null","html-keyboard-response","307","462765","0.0-32.0-5.30","","","test","leftarrow","0","2","FALSE","FALSE",""
"null","<div style=""font-size:60px;""> </div>","null","html-keyboard-response","308","463066","0.0-32.0-6.30","","","fixation_4","","","","","",""
"317.89999999990687","arrows.png","37","image-keyboard-response","309","463386","0.0-32.0-7.30","","","test","leftarrow","0","2","FALSE","FALSE","true"
"null","<p style=""color: green; font-size:300%;"">correct: $2.50</p>","null","html-keyboard-response","310","464640","0.0-32.0-8.30","","","","","","","","",""
"null","<div style=""font-size:60px;""> </div>","null","html-keyboard-response","311","465443","0.0-32.0-0.31","","","fixation_1","","","","","",""
"null","","null","image-keyboard-response","312","465449","0.0-32.0-1.31","","","test","uparrow","1","2","FALSE","FALSE",""
"null","<div style=""font-size:60px;""> </div>","null","html-keyboard-response","313","465752","0.0-32.0-2.31","","","fixation_2","","","","","",""
"null","img_1.bmp","null","image-keyboard-response","314","466755","0.0-32.0-3.31","","","img_on","","","","","",""
"null","<div style=""font-size:60px;""> </div>","null","html-keyboard-response","315","467058","0.0-32.0-4.31","","","fixation_3","","","","","",""
"null","","null","html-keyboard-response","316","467064","0.0-32.0-5.31","","","test","uparrow","1","2","FALSE","FALSE",""
"null","<div style=""font-size:60px;""> </div>","null","html-keyboard-response","317","467366","0.0-32.0-6.31","","","fixation_4","","","","","",""
"256.5","arrows.png","38","image-keyboard-response","318","467624","0.0-32.0-7.31","","","test","uparrow","1","2","FALSE","FALSE","true"
"null","<p style=""color: green; font-size:300%;"">correct: $7.50</p>","null","html-keyboard-response","319","468878","0.0-32.0-8.31","","","","","","","","",""
"null","<div style=""font-size:60px;""> </div>","null","html-keyboard-response","320","469681","0.0-32.0-0.32","","","fixation_1","","","","","",""
"null","","null","image-keyboard-response","321","469687","0.0-32.0-1.32","","","test","rightarrow","1","2","FALSE","FALSE",""
"null","<div style=""font-size:60px;""> </div>","null","html-keyboard-response","322","469988","0.0-32.0-2.32","","","fixation_2","","","","","",""
"null","img_2.bmp","null","image-keyboard-response","323","470991","0.0-32.0-3.32","","","img_on","","","","","",""
"null","<div style=""font-size:60px;""> </div>","null","html-keyboard-response","324","471294","0.0-32.0-4.32","","","fixation_3","","","","","",""
"null","","null","html-keyboard-response","325","471300","0.0-32.0-5.32","","","test","rightarrow","1","2","FALSE","FALSE",""
"null","<div style=""font-size:60px;""> </div>","null","html-keyboard-response","326","471601","0.0-32.0-6.32","","","fixation_4","","","","","",""
"317.5","arrows.png","39","image-keyboard-response","327","471920","0.0-32.0-7.32","","","test","rightarrow","1","2","FALSE","FALSE","true"
"null","<p style=""color: green; font-size:300%;"">correct: $7.50</p>","null","html-keyboard-response","328","473172","0.0-32.0-8.32","","","","","","","","",""
"null","<div style=""font-size:60px;""> </div>","null","html-keyboard-response","329","474474","0.0-32.0-0.33","","","fixation_1","","","","","",""
"null","","null","image-keyboard-response","330","474480","0.0-32.0-1.33","","","test","leftarrow","0","2","FALSE","FALSE",""
"null","<div style=""font-size:60px;""> </div>","null","html-keyboard-response","331","474781","0.0-32.0-2.33","","","fixation_2","","","","","",""
"null","img_4.bmp","null","image-keyboard-response","332","475783","0.0-32.0-3.33","","","img_on","","","","","",""
"null","<div style=""font-size:60px;""> </div>","null","html-keyboard-response","333","476086","0.0-32.0-4.33","","","fixation_3","","","","","",""
"null","","null","html-keyboard-response","334","476093","0.0-32.0-5.33","","","test","leftarrow","0","2","FALSE","FALSE",""
"null","<div style=""font-size:60px;""> </div>","null","html-keyboard-response","335","476394","0.0-32.0-6.33","","","fixation_4","","","","","",""
"251.60000000009313","arrows.png","37","image-keyboard-response","336","476647","0.0-32.0-7.33","","","test","leftarrow","0","2","FALSE","FALSE","true"
"null","<p style=""color: green; font-size:300%;"">correct: $2.50</p>","null","html-keyboard-response","337","477900","0.0-32.0-8.33","","","","","","","","",""
"null","<div style=""font-size:60px;""> </div>","null","html-keyboard-response","338","479453","0.0-32.0-0.34","","","fixation_1","","","","","",""
"null","","null","image-keyboard-response","339","479460","0.0-32.0-1.34","","","test","downarrow","0","2","FALSE","FALSE",""
"null","<div style=""font-size:60px;""> </div>","null","html-keyboard-response","340","479761","0.0-32.0-2.34","","","fixation_2","","","","","",""
"null","img_3.bmp","null","image-keyboard-response","341","480763","0.0-32.0-3.34","","","img_on","","","","","",""
"null","<div style=""font-size:60px;""> </div>","null","html-keyboard-response","342","481065","0.0-32.0-4.34","","","fixation_3","","","","","",""
"null","","null","html-keyboard-response","343","481070","0.0-32.0-5.34","","","test","downarrow","0","2","FALSE","FALSE",""
"null","<div style=""font-size:60px;""> </div>","null","html-keyboard-response","344","481370","0.0-32.0-6.34","","","fixation_4","","","","","",""
"286.69999999995343","arrows.png","40","image-keyboard-response","345","481658","0.0-32.0-7.34","","","test","downarrow","0","2","FALSE","FALSE","true"
"null","<p style=""color: green; font-size:300%;"">correct: $2.50</p>","null","html-keyboard-response","346","482911","0.0-32.0-8.34","","","","","","","","",""
"null","<div style=""font-size:60px;""> </div>","null","html-keyboard-response","347","484213","0.0-32.0-0.35","","","fixation_1","","","","","",""
"null","","null","image-keyboard-response","348","484219","0.0-32.0-1.35","","","test","uparrow","1","2","FALSE","FALSE",""
"null","<div style=""font-size:60px;""> </div>","null","html-keyboard-response","349","484520","0.0-32.0-2.35","","","fixation_2","","","","","",""
"null","img_1.bmp","null","image-keyboard-response","350","485522","0.0-32.0-3.35","","","img_on","","","","","",""
"null","<div style=""font-size:60px;""> </div>","null","html-keyboard-response","351","485823","0.0-32.0-4.35","","","fixation_3","","","","","",""
"null","","null","html-keyboard-response","352","485829","0.0-32.0-5.35","","","test","uparrow","1","2","FALSE","FALSE",""
"null","<div style=""font-size:60px;""> </div>","null","html-keyboard-response","353","486130","0.0-32.0-6.35","","","fixation_4","","","","","",""
"235.20000000018626","arrows.png","38","image-keyboard-response","354","486366","0.0-32.0-7.35","","","test","uparrow","1","2","FALSE","FALSE","true"
"null","<p style=""color: green; font-size:300%;"">correct: $7.50</p>","null","html-keyboard-response","355","487619","0.0-32.0-8.35","","","","","","","","",""
"null","<div style=""font-size:60px;""> </div>","null","html-keyboard-response","356","489172","0.0-32.0-0.36","","","fixation_1","","","","","",""
"null","","null","image-keyboard-response","357","489177","0.0-32.0-1.36","","","test","rightarrow","1","2","FALSE","FALSE",""
"null","<div style=""font-size:60px;""> </div>","null","html-keyboard-response","358","489479","0.0-32.0-2.36","","","fixation_2","","","","","",""
"null","img_2.bmp","null","image-keyboard-response","359","490481","0.0-32.0-3.36","","","img_on","","","","","",""
"null","<div style=""font-size:60px;""> </div>","null","html-keyboard-response","360","490783","0.0-32.0-4.36","","","fixation_3","","","","","",""
"null","","null","html-keyboard-response","361","490788","0.0-32.0-5.36","","","test","rightarrow","1","2","FALSE","FALSE",""
"null","<div style=""font-size:60px;""> </div>","null","html-keyboard-response","362","491089","0.0-32.0-6.36","","","fixation_4","","","","","",""
"377.9000000001397","arrows.png","39","image-keyboard-response","363","491468","0.0-32.0-7.36","","","test","rightarrow","1","2","FALSE","FALSE","true"
"null","<p style=""color: green; font-size:300%;"">correct: $7.50</p>","null","html-keyboard-response","364","492720","0.0-32.0-8.36","","","","","","","","",""
"null","<div style=""font-size:60px;""> </div>","null","html-keyboard-response","365","493523","0.0-32.0-0.37","","","fixation_1","","","","","",""
"null","","null","image-keyboard-response","366","493530","0.0-32.0-1.37","","","test","leftarrow","0","2","FALSE","FALSE",""
"null","<div style=""font-size:60px;""> </div>","null","html-keyboard-response","367","493832","0.0-32.0-2.37","","","fixation_2","","","","","",""
"null","img_4.bmp","null","image-keyboard-response","368","494834","0.0-32.0-3.37","","","img_on","","","","","",""
"null","<div style=""font-size:60px;""> </div>","null","html-keyboard-response","369","495135","0.0-32.0-4.37","","","fixation_3","","","","","",""
"null","","null","html-keyboard-response","370","495141","0.0-32.0-5.37","","","test","leftarrow","0","2","FALSE","FALSE",""
"null","<div style=""font-size:60px;""> </div>","null","html-keyboard-response","371","495443","0.0-32.0-6.37","","","fixation_4","","","","","",""
"304.39999999990687","arrows.png","37","image-keyboard-response","372","495749","0.0-32.0-7.37","","","test","leftarrow","0","2","FALSE","FALSE","true"
"null","<p style=""color: green; font-size:300%;"">correct: $2.50</p>","null","html-keyboard-response","373","497001","0.0-32.0-8.37","","","","","","","","",""
"null","<div style=""font-size:60px;""> </div>","null","html-keyboard-response","374","498303","0.0-32.0-0.38","","","fixation_1","","","","","",""
"null","","null","image-keyboard-response","375","498311","0.0-32.0-1.38","","","test","uparrow","1","2","FALSE","FALSE",""
"null","<div style=""font-size:60px;""> </div>","null","html-keyboard-response","376","498612","0.0-32.0-2.38","","","fixation_2","","","","","",""
"null","img_1.bmp","null","image-keyboard-response","377","499616","0.0-32.0-3.38","","","img_on","","","","","",""
"null","<div style=""font-size:60px;""> </div>","null","html-keyboard-response","378","499917","0.0-32.0-4.38","","","fixation_3","","","","","",""
"null","","null","html-keyboard-response","379","499923","0.0-32.0-5.38","","","test","uparrow","1","2","FALSE","FALSE",""
"null","<div style=""font-size:60px;""> </div>","null","html-keyboard-response","380","500224","0.0-32.0-6.38","","","fixation_4","","","","","",""
"181.39999999990687","arrows.png","38","image-keyboard-response","381","500407","0.0-32.0-7.38","","","test","uparrow","1","2","FALSE","FALSE","true"
"null","<p style=""color: green; font-size:300%;"">correct: $7.50</p>","null","html-keyboard-response","382","501660","0.0-32.0-8.38","","","","","","","","",""
"null","<div style=""font-size:60px;""> </div>","null","html-keyboard-response","383","502213","0.0-32.0-0.39","","","fixation_1","","","","","",""
"null","","null","image-keyboard-response","384","502219","0.0-32.0-1.39","","","test","downarrow","0","2","FALSE","FALSE",""
"null","<div style=""font-size:60px;""> </div>","null","html-keyboard-response","385","502521","0.0-32.0-2.39","","","fixation_2","","","","","",""
"null","img_3.bmp","null","image-keyboard-response","386","503524","0.0-32.0-3.39","","","img_on","","","","","",""
"null","<div style=""font-size:60px;""> </div>","null","html-keyboard-response","387","503826","0.0-32.0-4.39","","","fixation_3","","","","","",""
"null","","null","html-keyboard-response","388","503833","0.0-32.0-5.39","","","test","downarrow","0","2","FALSE","FALSE",""
"null","<div style=""font-size:60px;""> </div>","null","html-keyboard-response","389","504135","0.0-32.0-6.39","","","fixation_4","","","","","",""
"322","arrows.png","40","image-keyboard-response","390","504460","0.0-32.0-7.39","","","test","downarrow","0","2","FALSE","FALSE","true"
"null","<p style=""color: green; font-size:300%;"">correct: $2.50</p>","null","html-keyboard-response","391","505713","0.0-32.0-8.39","","","","","","","","",""
"null","<div style=""font-size:60px;""> </div>","null","html-keyboard-response","392","507268","0.0-32.0-0.40","","","fixation_1","","","","","",""
"null","switch_cue.png","null","image-keyboard-response","393","508271","0.0-32.0-1.40","","","test","rightarrow","0","1","TRUE","TRUE",""
"null","<div style=""font-size:60px;""> </div>","null","html-keyboard-response","394","508575","0.0-32.0-2.40","","","fixation_2","","","","","",""
"null","img_1.bmp","null","image-keyboard-response","395","509577","0.0-32.0-3.40","","","img_on","","","","","",""
"null","<div style=""font-size:60px;""> </div>","null","html-keyboard-response","396","509880","0.0-32.0-4.40","","","fixation_3","","","","","",""
"null","<img src=""CC1.png"" width=200 height=200/>","null","html-keyboard-response","397","510883","0.0-32.0-5.40","","","test","rightarrow","0","1","TRUE","TRUE",""
"null","<div style=""font-size:60px;""> </div>","null","html-keyboard-response","398","511184","0.0-32.0-6.40","","","fixation_4","","","","","",""
"405.70000000018626","arrows.png","38","image-keyboard-response","399","511592","0.0-32.0-7.40","","","test","rightarrow","0","1","TRUE","TRUE","false"
"null","<p style=""color: red; font-size:300%;"">incorrect: $0</p>","null","html-keyboard-response","400","512845","0.0-32.0-8.40","","","","","","","","",""
"null","<div style=""font-size:60px;""> </div>","null","html-keyboard-response","401","514398","0.0-32.0-0.41","","","fixation_1","","","","","",""
"null","","null","image-keyboard-response","402","514404","0.0-32.0-1.41","","","test","uparrow","0","1","TRUE","FALSE",""
"null","<div style=""font-size:60px;""> </div>","null","html-keyboard-response","403","514706","0.0-32.0-2.41","","","fixation_2","","","","","",""
"null","img_4.bmp","null","image-keyboard-response","404","515709","0.0-32.0-3.41","","","img_on","","","","","",""
"null","<div style=""font-size:60px;""> </div>","null","html-keyboard-response","405","516012","0.0-32.0-4.41","","","fixation_3","","","","","",""
"null","<img src=""CC1.png"" width=200 height=200/>","null","html-keyboard-response","406","517015","0.0-32.0-5.41","","","test","uparrow","0","1","TRUE","FALSE",""
"null","<div style=""font-size:60px;""> </div>","null","html-keyboard-response","407","517319","0.0-32.0-6.41","","","fixation_4","","","","","",""
"180.89999999990687","arrows.png","38","image-keyboard-response","408","517502","0.0-32.0-7.41","","","test","uparrow","0","1","TRUE","FALSE","true"
"null","<p style=""color: green; font-size:300%;"">correct: $2.50</p>","null","html-keyboard-response","409","518755","0.0-32.0-8.41","","","","","","","","",""
"null","<div style=""font-size:60px;""> </div>","null","html-keyboard-response","410","519309","0.0-32.0-0.42","","","fixation_1","","","","","",""
"null","","null","image-keyboard-response","411","519315","0.0-32.0-1.42","","","test","leftarrow","1","1","TRUE","FALSE",""
"null","<div style=""font-size:60px;""> </div>","null","html-keyboard-response","412","519619","0.0-32.0-2.42","","","fixation_2","","","","","",""
"null","img_3.bmp","null","image-keyboard-response","413","520622","0.0-32.0-3.42","","","img_on","","","","","",""
"null","<div style=""font-size:60px;""> </div>","null","html-keyboard-response","414","520924","0.0-32.0-4.42","","","fixation_3","","","","","",""
"null","<img src=""CC1.png"" width=200 height=200/>","null","html-keyboard-response","415","521927","0.0-32.0-5.42","","","test","leftarrow","1","1","TRUE","FALSE",""
"null","<div style=""font-size:60px;""> </div>","null","html-keyboard-response","416","522230","0.0-32.0-6.42","","","fixation_4","","","","","",""
"384.20000000018626","arrows.png","37","image-keyboard-response","417","522616","0.0-32.0-7.42","","","test","leftarrow","1","1","TRUE","FALSE","true"
"null","<p style=""color: green; font-size:300%;"">correct: $7.50</p>","null","html-keyboard-response","418","523868","0.0-32.0-8.42","","","","","","","","",""
"null","<div style=""font-size:60px;""> </div>","null","html-keyboard-response","419","524421","0.0-32.0-0.43","","","fixation_1","","","","","",""
"null","","null","image-keyboard-response","420","524427","0.0-32.0-1.43","","","test","downarrow","1","1","TRUE","FALSE",""
"null","<div style=""font-size:60px;""> </div>","null","html-keyboard-response","421","524729","0.0-32.0-2.43","","","fixation_2","","","","","",""
"null","img_2.bmp","null","image-keyboard-response","422","525732","0.0-32.0-3.43","","","img_on","","","","","",""
"null","<div style=""font-size:60px;""> </div>","null","html-keyboard-response","423","526034","0.0-32.0-4.43","","","fixation_3","","","","","",""
"null","<img src=""CC1.png"" width=200 height=200/>","null","html-keyboard-response","424","527037","0.0-32.0-5.43","","","test","downarrow","1","1","TRUE","FALSE",""
"null","<div style=""font-size:60px;""> </div>","null","html-keyboard-response","425","527339","0.0-32.0-6.43","","","fixation_4","","","","","",""
"372.8000000002794","arrows.png","40","image-keyboard-response","426","527714","0.0-32.0-7.43","","","test","downarrow","1","1","TRUE","FALSE","true"
"null","<p style=""color: green; font-size:300%;"">correct: $7.50</p>","null","html-keyboard-response","427","528968","0.0-32.0-8.43","","","","","","","","",""
"null","<div style=""font-size:60px;""> </div>","null","html-keyboard-response","428","530021","0.0-32.0-0.44","","","fixation_1","","","","","",""
"null","","null","image-keyboard-response","429","530028","0.0-32.0-1.44","","","test","uparrow","0","1","FALSE","FALSE",""
"null","<div style=""font-size:60px;""> </div>","null","html-keyboard-response","430","530330","0.0-32.0-2.44","","","fixation_2","","","","","",""
"null","img_4.bmp","null","image-keyboard-response","431","531333","0.0-32.0-3.44","","","img_on","","","","","",""
"null","<div style=""font-size:60px;""> </div>","null","html-keyboard-response","432","531635","0.0-32.0-4.44","","","fixation_3","","","","","",""
"null","","null","html-keyboard-response","433","531641","0.0-32.0-5.44","","","test","uparrow","0","1","FALSE","FALSE",""
"null","<div style=""font-size:60px;""> </div>","null","html-keyboard-response","434","531942","0.0-32.0-6.44","","","fixation_4","","","","","",""
"273.60000000009313","arrows.png","38","image-keyboard-response","435","532218","0.0-32.0-7.44","","","test","uparrow","0","1","FALSE","FALSE","true"
"null","<p style=""color: green; font-size:300%;"">correct: $2.50</p>","null","html-keyboard-response","436","533470","0.0-32.0-8.44","","","","","","","","",""
"null","<div style=""font-size:60px;""> </div>","null","html-keyboard-response","437","534274","0.0-32.0-0.45","","","fixation_1","","","","","",""
"null","","null","image-keyboard-response","438","534281","0.0-32.0-1.45","","","test","downarrow","1","1","FALSE","FALSE",""
"null","<div style=""font-size:60px;""> </div>","null","html-keyboard-response","439","534583","0.0-32.0-2.45","","","fixation_2","","","","","",""
"null","img_2.bmp","null","image-keyboard-response","440","535587","0.0-32.0-3.45","","","img_on","","","","","",""
"null","<div style=""font-size:60px;""> </div>","null","html-keyboard-response","441","535890","0.0-32.0-4.45","","","fixation_3","","","","","",""
"null","","null","html-keyboard-response","442","535896","0.0-32.0-5.45","","","test","downarrow","1","1","FALSE","FALSE",""
"null","<div style=""font-size:60px;""> </div>","null","html-keyboard-response","443","536199","0.0-32.0-6.45","","","fixation_4","","","","","",""
"28.40000000037253","arrows.png","39","image-keyboard-response","444","536229","0.0-32.0-7.45","","","test","downarrow","1","1","FALSE","FALSE","false"
"null","<p style=""color: red; font-size:300%;"">incorrect: $0</p>","null","html-keyboard-response","445","537482","0.0-32.0-8.45","","","","","","","","",""
"null","<div style=""font-size:60px;""> </div>","null","html-keyboard-response","446","538535","0.0-32.0-0.46","","","fixation_1","","","","","",""
"null","","null","image-keyboard-response","447","538541","0.0-32.0-1.46","","","test","rightarrow","0","1","FALSE","FALSE",""
"null","<div style=""font-size:60px;""> </div>","null","html-keyboard-response","448","538843","0.0-32.0-2.46","","","fixation_2","","","","","",""
"null","img_1.bmp","null","image-keyboard-response","449","539845","0.0-32.0-3.46","","","img_on","","","","","",""
"null","<div style=""font-size:60px;""> </div>","null","html-keyboard-response","450","540147","0.0-32.0-4.46","","","fixation_3","","","","","",""
"null","","null","html-keyboard-response","451","540153","0.0-32.0-5.46","","","test","rightarrow","0","1","FALSE","FALSE",""
"null","<div style=""font-size:60px;""> </div>","null","html-keyboard-response","452","540455","0.0-32.0-6.46","","","fixation_4","","","","","",""
"298.59999999962747","arrows.png","39","image-keyboard-response","453","540756","0.0-32.0-7.46","","","test","rightarrow","0","1","FALSE","FALSE","true"
"null","<p style=""color: green; font-size:300%;"">correct: $2.50</p>","null","html-keyboard-response","454","542009","0.0-32.0-8.46","","","","","","","","",""
"null","<div style=""font-size:60px;""> </div>","null","html-keyboard-response","455","543312","0.0-32.0-0.47","","","fixation_1","","","","","",""
"null","","null","image-keyboard-response","456","543318","0.0-32.0-1.47","","","test","leftarrow","1","1","FALSE","FALSE",""
"null","<div style=""font-size:60px;""> </div>","null","html-keyboard-response","457","543620","0.0-32.0-2.47","","","fixation_2","","","","","",""
"null","img_3.bmp","null","image-keyboard-response","458","544622","0.0-32.0-3.47","","","img_on","","","","","",""
"null","<div style=""font-size:60px;""> </div>","null","html-keyboard-response","459","544924","0.0-32.0-4.47","","","fixation_3","","","","","",""
"null","","null","html-keyboard-response","460","544929","0.0-32.0-5.47","","","test","leftarrow","1","1","FALSE","FALSE",""
"null","<div style=""font-size:60px;""> </div>","null","html-keyboard-response","461","545231","0.0-32.0-6.47","","","fixation_4","","","","","",""
"335.8000000002794","arrows.png","37","image-keyboard-response","462","545569","0.0-32.0-7.47","","","test","leftarrow","1","1","FALSE","FALSE","true"
"null","<p style=""color: green; font-size:300%;"">correct: $7.50</p>","null","html-keyboard-response","463","546821","0.0-32.0-8.47","","","","","","","","",""
"null","<div style=""font-size:60px;""> </div>","null","html-keyboard-response","464","547624","0.0-32.0-0.48","","","fixation_1","","","","","",""
"null","","null","image-keyboard-response","465","547631","0.0-32.0-1.48","","","test","downarrow","1","1","FALSE","FALSE",""
"null","<div style=""font-size:60px;""> </div>","null","html-keyboard-response","466","547932","0.0-32.0-2.48","","","fixation_2","","","","","",""
"null","img_2.bmp","null","image-keyboard-response","467","548935","0.0-32.0-3.48","","","img_on","","","","","",""
"null","<div style=""font-size:60px;""> </div>","null","html-keyboard-response","468","549237","0.0-32.0-4.48","","","fixation_3","","","","","",""
"null","","null","html-keyboard-response","469","549244","0.0-32.0-5.48","","","test","downarrow","1","1","FALSE","FALSE",""
"null","<div style=""font-size:60px;""> </div>","null","html-keyboard-response","470","549545","0.0-32.0-6.48","","","fixation_4","","","","","",""
"39.90000000037253","arrows.png","40","image-keyboard-response","471","549587","0.0-32.0-7.48","","","test","downarrow","1","1","FALSE","FALSE","true"
"null","<p style=""color: green; font-size:300%;"">correct: $7.50</p>","null","html-keyboard-response","472","550840","0.0-32.0-8.48","","","","","","","","",""
"null","<div style=""font-size:60px;""> </div>","null","html-keyboard-response","473","551894","0.0-32.0-0.49","","","fixation_1","","","","","",""
"null","","null","image-keyboard-response","474","551900","0.0-32.0-1.49","","","test","leftarrow","1","1","FALSE","FALSE",""
"null","<div style=""font-size:60px;""> </div>","null","html-keyboard-response","475","552201","0.0-32.0-2.49","","","fixation_2","","","","","",""
"null","img_3.bmp","null","image-keyboard-response","476","553205","0.0-32.0-3.49","","","img_on","","","","","",""
"null","<div style=""font-size:60px;""> </div>","null","html-keyboard-response","477","553507","0.0-32.0-4.49","","","fixation_3","","","","","",""
"null","","null","html-keyboard-response","478","553514","0.0-32.0-5.49","","","test","leftarrow","1","1","FALSE","FALSE",""
"null","<div style=""font-size:60px;""> </div>","null","html-keyboard-response","479","553817","0.0-32.0-6.49","","","fixation_4","","","","","",""
"81.79999999981374","arrows.png","37","image-keyboard-response","480","553900","0.0-32.0-7.49","","","test","leftarrow","1","1","FALSE","FALSE","true"
"null","<p style=""color: green; font-size:300%;"">correct: $7.50</p>","null","html-keyboard-response","481","555154","0.0-32.0-8.49","","","","","","","","",""
"null","<div style=""font-size:60px;""> </div>","null","html-keyboard-response","482","555708","0.0-32.0-0.50","","","fixation_1","","","","","",""
"null","","null","image-keyboard-response","483","555714","0.0-32.0-1.50","","","test","uparrow","0","1","FALSE","FALSE",""
"null","<div style=""font-size:60px;""> </div>","null","html-keyboard-response","484","556016","0.0-32.0-2.50","","","fixation_2","","","","","",""
"null","img_4.bmp","null","image-keyboard-response","485","557019","0.0-32.0-3.50","","","img_on","","","","","",""
"null","<div style=""font-size:60px;""> </div>","null","html-keyboard-response","486","557321","0.0-32.0-4.50","","","fixation_3","","","","","",""
"null","","null","html-keyboard-response","487","557327","0.0-32.0-5.50","","","test","uparrow","0","1","FALSE","FALSE",""
"null","<div style=""font-size:60px;""> </div>","null","html-keyboard-response","488","557629","0.0-32.0-6.50","","","fixation_4","","","","","",""
"279.40000000037253","arrows.png","38","image-keyboard-response","489","557910","0.0-32.0-7.50","","","test","uparrow","0","1","FALSE","FALSE","true"
"null","<p style=""color: green; font-size:300%;"">correct: $2.50</p>","null","html-keyboard-response","490","559163","0.0-32.0-8.50","","","","","","","","",""
"null","<div style=""font-size:60px;""> </div>","null","html-keyboard-response","491","560717","0.0-32.0-0.51","","","fixation_1","","","","","",""
"null","switch_cue.png","null","image-keyboard-response","492","561720","0.0-32.0-1.51","","","test","rightarrow","0","1","TRUE","TRUE",""
"null","<div style=""font-size:60px;""> </div>","null","html-keyboard-response","493","562022","0.0-32.0-2.51","","","fixation_2","","","","","",""
"null","img_1.bmp","null","image-keyboard-response","494","563024","0.0-32.0-3.51","","","img_on","","","","","",""
"null","<div style=""font-size:60px;""> </div>","null","html-keyboard-response","495","563327","0.0-32.0-4.51","","","fixation_3","","","","","",""
"null","<img src=""CC1.png"" width=200 height=200/>","null","html-keyboard-response","496","564329","0.0-32.0-5.51","","","test","rightarrow","0","1","TRUE","TRUE",""
"null","<div style=""font-size:60px;""> </div>","null","html-keyboard-response","497","564632","0.0-32.0-6.51","","","fixation_4","","","","","",""
"301.10000000009313","arrows.png","39","image-keyboard-response","498","564935","0.0-32.0-7.51","","","test","rightarrow","0","1","TRUE","TRUE","true"
"null","<p style=""color: green; font-size:300%;"">correct: $2.50</p>","null","html-keyboard-response","499","566188","0.0-32.0-8.51","","","","","","","","",""
"null","<div style=""font-size:60px;""> </div>","null","html-keyboard-response","500","567241","0.0-32.0-0.52","","","fixation_1","","","","","",""
"null","switch_cue.png","null","image-keyboard-response","501","568244","0.0-32.0-1.52","","","test","uparrow","1","2","TRUE","TRUE",""
"null","<div style=""font-size:60px;""> </div>","null","html-keyboard-response","502","568546","0.0-32.0-2.52","","","fixation_2","","","","","",""
"null","img_1.bmp","null","image-keyboard-response","503","569548","0.0-32.0-3.52","","","img_on","","","","","",""
"null","<div style=""font-size:60px;""> </div>","null","html-keyboard-response","504","569850","0.0-32.0-4.52","","","fixation_3","","","","","",""
"null","<img src=""CC2.png"" width=200 height=200/>","null","html-keyboard-response","505","570852","0.0-32.0-5.52","","","test","uparrow","1","2","TRUE","TRUE",""
"null","<div style=""font-size:60px;""> </div>","null","html-keyboard-response","506","571154","0.0-32.0-6.52","","","fixation_4","","","","","",""
"637.1000000000931","arrows.png","40","image-keyboard-response","507","571793","0.0-32.0-7.52","","","test","uparrow","1","2","TRUE","TRUE","false"
"null","<p style=""color: red; font-size:300%;"">incorrect: $0</p>","null","html-keyboard-response","508","573046","0.0-32.0-8.52","","","","","","","","",""
"null","<div style=""font-size:60px;""> </div>","null","html-keyboard-response","509","573600","0.0-32.0-0.53","","","fixation_1","","","","","",""
"null","","null","image-keyboard-response","510","573608","0.0-32.0-1.53","","","test","downarrow","0","2","TRUE","FALSE",""
"null","<div style=""font-size:60px;""> </div>","null","html-keyboard-response","511","573910","0.0-32.0-2.53","","","fixation_2","","","","","",""
"null","img_3.bmp","null","image-keyboard-response","512","574912","0.0-32.0-3.53","","","img_on","","","","","",""
"null","<div style=""font-size:60px;""> </div>","null","html-keyboard-response","513","575214","0.0-32.0-4.53","","","fixation_3","","","","","",""
"null","<img src=""CC2.png"" width=200 height=200/>","null","html-keyboard-response","514","576217","0.0-32.0-5.53","","","test","downarrow","0","2","TRUE","FALSE",""
"null","<div style=""font-size:60px;""> </div>","null","html-keyboard-response","515","576518","0.0-32.0-6.53","","","fixation_4","","","","","",""
"820.1000000000931","arrows.png","40","image-keyboard-response","516","577341","0.0-32.0-7.53","","","test","downarrow","0","2","TRUE","FALSE","true"
"null","<p style=""color: green; font-size:300%;"">correct: $2.50</p>","null","html-keyboard-response","517","578594","0.0-32.0-8.53","","","","","","","","",""
"null","<div style=""font-size:60px;""> </div>","null","html-keyboard-response","518","579647","0.0-32.0-0.54","","","fixation_1","","","","","",""
"null","","null","image-keyboard-response","519","579655","0.0-32.0-1.54","","","test","rightarrow","1","2","TRUE","FALSE",""
"null","<div style=""font-size:60px;""> </div>","null","html-keyboard-response","520","579957","0.0-32.0-2.54","","","fixation_2","","","","","",""
"null","img_2.bmp","null","image-keyboard-response","521","580959","0.0-32.0-3.54","","","img_on","","","","","",""
"null","<div style=""font-size:60px;""> </div>","null","html-keyboard-response","522","581261","0.0-32.0-4.54","","","fixation_3","","","","","",""
"null","<img src=""CC2.png"" width=200 height=200/>","null","html-keyboard-response","523","582264","0.0-32.0-5.54","","","test","rightarrow","1","2","TRUE","FALSE",""
"null","<div style=""font-size:60px;""> </div>","null","html-keyboard-response","524","582566","0.0-32.0-6.54","","","fixation_4","","","","","",""
"376.70000000018626","arrows.png","39","image-keyboard-response","525","582944","0.0-32.0-7.54","","","test","rightarrow","1","2","TRUE","FALSE","true"
"null","<p style=""color: green; font-size:300%;"">correct: $7.50</p>","null","html-keyboard-response","526","584198","0.0-32.0-8.54","","","","","","","","",""
"null","<div style=""font-size:60px;""> </div>","null","html-keyboard-response","527","585501","0.0-32.0-0.55","","","fixation_1","","","","","",""
"null","","null","image-keyboard-response","528","585507","0.0-32.0-1.55","","","test","leftarrow","0","2","TRUE","FALSE",""
"null","<div style=""font-size:60px;""> </div>","null","html-keyboard-response","529","585809","0.0-32.0-2.55","","","fixation_2","","","","","",""
"null","img_4.bmp","null","image-keyboard-response","530","586812","0.0-32.0-3.55","","","img_on","","","","","",""
"null","<div style=""font-size:60px;""> </div>","null","html-keyboard-response","531","587115","0.0-32.0-4.55","","","fixation_3","","","","","",""
"null","<img src=""CC2.png"" width=200 height=200/>","null","html-keyboard-response","532","588118","0.0-32.0-5.55","","","test","leftarrow","0","2","TRUE","FALSE",""
"null","<div style=""font-size:60px;""> </div>","null","html-keyboard-response","533","588421","0.0-32.0-6.55","","","fixation_4","","","","","",""
"333.8000000002794","arrows.png","37","image-keyboard-response","534","588757","0.0-32.0-7.55","","","test","leftarrow","0","2","TRUE","FALSE","true"
"null","<p style=""color: green; font-size:300%;"">correct: $2.50</p>","null","html-keyboard-response","535","590010","0.0-32.0-8.55","","","","","","","","",""
"null","<div style=""font-size:60px;""> </div>","null","html-keyboard-response","536","591063","0.0-32.0-0.56","","","fixation_1","","","","","",""
"null","","null","image-keyboard-response","537","591069","0.0-32.0-1.56","","","test","leftarrow","0","2","FALSE","FALSE",""
"null","<div style=""font-size:60px;""> </div>","null","html-keyboard-response","538","591372","0.0-32.0-2.56","","","fixation_2","","","","","",""
"null","img_4.bmp","null","image-keyboard-response","539","592374","0.0-32.0-3.56","","","img_on","","","","","",""
"null","<div style=""font-size:60px;""> </div>","null","html-keyboard-response","540","592675","0.0-32.0-4.56","","","fixation_3","","","","","",""
"null","","null","html-keyboard-response","541","592682","0.0-32.0-5.56","","","test","leftarrow","0","2","FALSE","FALSE",""
"null","<div style=""font-size:60px;""> </div>","null","html-keyboard-response","542","592984","0.0-32.0-6.56","","","fixation_4","","","","","",""
"283.70000000018626","arrows.png","37","image-keyboard-response","543","593270","0.0-32.0-7.56","","","test","leftarrow","0","2","FALSE","FALSE","true"
"null","<p style=""color: green; font-size:300%;"">correct: $2.50</p>","null","html-keyboard-response","544","594524","0.0-32.0-8.56","","","","","","","","",""
"null","<div style=""font-size:60px;""> </div>","null","html-keyboard-response","545","596077","0.0-32.0-0.57","","","fixation_1","","","","","",""
"null","","null","image-keyboard-response","546","596084","0.0-32.0-1.57","","","test","uparrow","1","2","FALSE","FALSE",""
"null","<div style=""font-size:60px;""> </div>","null","html-keyboard-response","547","596387","0.0-32.0-2.57","","","fixation_2","","","","","",""
"null","img_1.bmp","null","image-keyboard-response","548","597389","0.0-32.0-3.57","","","img_on","","","","","",""
"null","<div style=""font-size:60px;""> </div>","null","html-keyboard-response","549","597692","0.0-32.0-4.57","","","fixation_3","","","","","",""
"null","","null","html-keyboard-response","550","597699","0.0-32.0-5.57","","","test","uparrow","1","2","FALSE","FALSE",""
"null","<div style=""font-size:60px;""> </div>","null","html-keyboard-response","551","598001","0.0-32.0-6.57","","","fixation_4","","","","","",""
"137.29999999981374","arrows.png","38","image-keyboard-response","552","598140","0.0-32.0-7.57","","","test","uparrow","1","2","FALSE","FALSE","true"
"null","<p style=""color: green; font-size:300%;"">correct: $7.50</p>","null","html-keyboard-response","553","599393","0.0-32.0-8.57","","","","","","","","",""
"null","<div style=""font-size:60px;""> </div>","null","html-keyboard-response","554","599947","0.0-32.0-0.58","","","fixation_1","","","","","",""
"null","","null","image-keyboard-response","555","599953","0.0-32.0-1.58","","","test","rightarrow","1","2","FALSE","FALSE",""
"null","<div style=""font-size:60px;""> </div>","null","html-keyboard-response","556","600254","0.0-32.0-2.58","","","fixation_2","","","","","",""
"null","img_2.bmp","null","image-keyboard-response","557","601257","0.0-32.0-3.58","","","img_on","","","","","",""
"null","<div style=""font-size:60px;""> </div>","null","html-keyboard-response","558","601559","0.0-32.0-4.58","","","fixation_3","","","","","",""
"null","","null","html-keyboard-response","559","601566","0.0-32.0-5.58","","","test","rightarrow","1","2","FALSE","FALSE",""
"null","<div style=""font-size:60px;""> </div>","null","html-keyboard-response","560","601868","0.0-32.0-6.58","","","fixation_4","","","","","",""
"636.1999999997206","arrows.png","39","image-keyboard-response","561","602506","0.0-32.0-7.58","","","test","rightarrow","1","2","FALSE","FALSE","true"
"null","<p style=""color: green; font-size:300%;"">correct: $7.50</p>","null","html-keyboard-response","562","603758","0.0-32.0-8.58","","","","","","","","",""
"null","<div style=""font-size:60px;""> </div>","null","html-keyboard-response","563","604561","0.0-32.0-0.59","","","fixation_1","","","","","",""
"null","","null","image-keyboard-response","564","604567","0.0-32.0-1.59","","","test","downarrow","0","2","FALSE","FALSE",""
"null","<div style=""font-size:60px;""> </div>","null","html-keyboard-response","565","604869","0.0-32.0-2.59","","","fixation_2","","","","","",""
"null","img_3.bmp","null","image-keyboard-response","566","605871","0.0-32.0-3.59","","","img_on","","","","","",""
"null","<div style=""font-size:60px;""> </div>","null","html-keyboard-response","567","606175","0.0-32.0-4.59","","","fixation_3","","","","","",""
"null","","null","html-keyboard-response","568","606180","0.0-32.0-5.59","","","test","downarrow","0","2","FALSE","FALSE",""
"null","<div style=""font-size:60px;""> </div>","null","html-keyboard-response","569","606483","0.0-32.0-6.59","","","fixation_4","","","","","",""
"333.29999999981374","arrows.png","40","image-keyboard-response","570","606818","0.0-32.0-7.59","","","test","downarrow","0","2","FALSE","FALSE","true"
"null","<p style=""color: green; font-size:300%;"">correct: $2.50</p>","null","html-keyboard-response","571","608072","0.0-32.0-8.59","","","","","","","","",""
"null","<div style=""font-size:60px;""> </div>","null","html-keyboard-response","572","609625","0.0-32.0-0.60","","","fixation_1","","","","","",""
"null","","null","image-keyboard-response","573","609631","0.0-32.0-1.60","","","test","leftarrow","0","2","FALSE","FALSE",""
"null","<div style=""font-size:60px;""> </div>","null","html-keyboard-response","574","609932","0.0-32.0-2.60","","","fixation_2","","","","","",""
"null","img_4.bmp","null","image-keyboard-response","575","610934","0.0-32.0-3.60","","","img_on","","","","","",""
"null","<div style=""font-size:60px;""> </div>","null","html-keyboard-response","576","611236","0.0-32.0-4.60","","","fixation_3","","","","","",""
"null","","null","html-keyboard-response","577","611243","0.0-32.0-5.60","","","test","leftarrow","0","2","FALSE","FALSE",""
"null","<div style=""font-size:60px;""> </div>","null","html-keyboard-response","578","611544","0.0-32.0-6.60","","","fixation_4","","","","","",""
"746.5","arrows.png","37","image-keyboard-response","579","612293","0.0-32.0-7.60","","","test","leftarrow","0","2","FALSE","FALSE","true"
"null","<p style=""color: green; font-size:300%;"">correct: $2.50</p>","null","html-keyboard-response","580","613547","0.0-32.0-8.60","","","","","","","","",""
"null","<div style=""font-size:60px;""> </div>","null","html-keyboard-response","581","615100","0.0-32.0-0.61","","","fixation_1","","","","","",""
"null","switch_cue.png","null","image-keyboard-response","582","616103","0.0-32.0-1.61","","","test","rightarrow","1","2","TRUE","TRUE",""
"null","<div style=""font-size:60px;""> </div>","null","html-keyboard-response","583","616404","0.0-32.0-2.61","","","fixation_2","","","","","",""
"null","img_2.bmp","null","image-keyboard-response","584","617407","0.0-32.0-3.61","","","img_on","","","","","",""
"null","<div style=""font-size:60px;""> </div>","null","html-keyboard-response","585","617709","0.0-32.0-4.61","","","fixation_3","","","","","",""
"null","<img src=""CC2.png"" width=200 height=200/>","null","html-keyboard-response","586","618714","0.0-32.0-5.61","","","test","rightarrow","1","2","TRUE","TRUE",""
"null","<div style=""font-size:60px;""> </div>","null","html-keyboard-response","587","619016","0.0-32.0-6.61","","","fixation_4","","","","","",""
"736.2000000001863","arrows.png","40","image-keyboard-response","588","619754","0.0-32.0-7.61","","","test","rightarrow","1","2","TRUE","TRUE","false"
"null","<p style=""color: red; font-size:300%;"">incorrect: $0</p>","null","html-keyboard-response","589","621007","0.0-32.0-8.61","","","","","","","","",""
"null","<div style=""font-size:60px;""> </div>","null","html-keyboard-response","590","622060","0.0-32.0-0.62","","","fixation_1","","","","","",""
"null","switch_cue.png","null","image-keyboard-response","591","623063","0.0-32.0-1.62","","","test","downarrow","0","2","TRUE","TRUE",""
"null","<div style=""font-size:60px;""> </div>","null","html-keyboard-response","592","623364","0.0-32.0-2.62","","","fixation_2","","","","","",""
"null","img_3.bmp","null","image-keyboard-response","593","624368","0.0-32.0-3.62","","","img_on","","","","","",""
"null","<div style=""font-size:60px;""> </div>","null","html-keyboard-response","594","624670","0.0-32.0-4.62","","","fixation_3","","","","","",""
"null","<img src=""CC2.png"" width=200 height=200/>","null","html-keyboard-response","595","625672","0.0-32.0-5.62","","","test","downarrow","0","2","TRUE","TRUE",""
"null","<div style=""font-size:60px;""> </div>","null","html-keyboard-response","596","625974","0.0-32.0-6.62","","","fixation_4","","","","","",""
"53.8000000002794","arrows.png","37","image-keyboard-response","597","626030","0.0-32.0-7.62","","","test","downarrow","0","2","TRUE","TRUE","false"
"null","<p style=""color: red; font-size:300%;"">incorrect: $0</p>","null","html-keyboard-response","598","627283","0.0-32.0-8.62","","","","","","","","",""
"null","<div style=""font-size:60px;""> </div>","null","html-keyboard-response","599","628337","0.0-32.0-0.63","","","fixation_1","","","","","",""
"null","switch_cue.png","null","image-keyboard-response","600","629339","0.0-32.0-1.63","","","test","uparrow","1","2","TRUE","TRUE",""
"null","<div style=""font-size:60px;""> </div>","null","html-keyboard-response","601","629641","0.0-32.0-2.63","","","fixation_2","","","","","",""
"null","img_1.bmp","null","image-keyboard-response","602","630644","0.0-32.0-3.63","","","img_on","","","","","",""
"null","<div style=""font-size:60px;""> </div>","null","html-keyboard-response","603","630945","0.0-32.0-4.63","","","fixation_3","","","","","",""
"null","<img src=""CC2.png"" width=200 height=200/>","null","html-keyboard-response","604","631948","0.0-32.0-5.63","","","test","uparrow","1","2","TRUE","TRUE",""
"null","<div style=""font-size:60px;""> </div>","null","html-keyboard-response","605","632251","0.0-32.0-6.63","","","fixation_4","","","","","",""
"428","arrows.png","39","image-keyboard-response","606","632681","0.0-32.0-7.63","","","test","uparrow","1","2","TRUE","TRUE","false"
"null","<p style=""color: red; font-size:300%;"">incorrect: $0</p>","null","html-keyboard-response","607","633933","0.0-32.0-8.63","","","","","","","","",""
"null","<div style=""font-size:60px;""> </div>","null","html-keyboard-response","608","634486","0.0-32.0-0.64","","","fixation_1","","","","","",""
"null","switch_cue.png","null","image-keyboard-response","609","635488","0.0-32.0-1.64","","","test","uparrow","0","1","TRUE","TRUE",""
"null","<div style=""font-size:60px;""> </div>","null","html-keyboard-response","610","635791","0.0-32.0-2.64","","","fixation_2","","","","","",""
"null","img_4.bmp","null","image-keyboard-response","611","636793","0.0-32.0-3.64","","","img_on","","","","","",""
"null","<div style=""font-size:60px;""> </div>","null","html-keyboard-response","612","637096","0.0-32.0-4.64","","","fixation_3","","","","","",""
"null","<img src=""CC1.png"" width=200 height=200/>","null","html-keyboard-response","613","638099","0.0-32.0-5.64","","","test","uparrow","0","1","TRUE","TRUE",""
"null","<div style=""font-size:60px;""> </div>","null","html-keyboard-response","614","638402","0.0-32.0-6.64","","","fixation_4","","","","","",""
"1.900000000372529","arrows.png","38","image-keyboard-response","615","638406","0.0-32.0-7.64","","","test","uparrow","0","1","TRUE","TRUE","true"
"null","<p style=""color: green; font-size:300%;"">correct: $2.50</p>","null","html-keyboard-response","616","639657","0.0-32.0-8.64","","","","","","","","",""
"null","<div style=""font-size:60px;""> </div>","null","html-keyboard-response","617","640710","0.0-32.0-0.65","","","fixation_1","","","","","",""
"null","","null","image-keyboard-response","618","640716","0.0-32.0-1.65","","","test","leftarrow","1","1","TRUE","FALSE",""
"null","<div style=""font-size:60px;""> </div>","null","html-keyboard-response","619","641017","0.0-32.0-2.65","","","fixation_2","","","","","",""
"null","img_3.bmp","null","image-keyboard-response","620","642019","0.0-32.0-3.65","","","img_on","","","","","",""
"null","<div style=""font-size:60px;""> </div>","null","html-keyboard-response","621","642320","0.0-32.0-4.65","","","fixation_3","","","","","",""
"null","<img src=""CC1.png"" width=200 height=200/>","null","html-keyboard-response","622","643322","0.0-32.0-5.65","","","test","leftarrow","1","1","TRUE","FALSE",""
"null","<div style=""font-size:60px;""> </div>","null","html-keyboard-response","623","643624","0.0-32.0-6.65","","","fixation_4","","","","","",""
"395.10000000009313","arrows.png","37","image-keyboard-response","624","644021","0.0-32.0-7.65","","","test","leftarrow","1","1","TRUE","FALSE","true"
"null","<p style=""color: green; font-size:300%;"">correct: $7.50</p>","null","html-keyboard-response","625","645274","0.0-32.0-8.65","","","","","","","","",""
"null","<div style=""font-size:60px;""> </div>","null","html-keyboard-response","626","646077","0.0-32.0-0.66","","","fixation_1","","","","","",""
"null","","null","image-keyboard-response","627","646083","0.0-32.0-1.66","","","test","rightarrow","0","1","TRUE","FALSE",""
"null","<div style=""font-size:60px;""> </div>","null","html-keyboard-response","628","646384","0.0-32.0-2.66","","","fixation_2","","","","","",""
"null","img_1.bmp","null","image-keyboard-response","629","647386","0.0-32.0-3.66","","","img_on","","","","","",""
"null","<div style=""font-size:60px;""> </div>","null","html-keyboard-response","630","647688","0.0-32.0-4.66","","","fixation_3","","","","","",""
"null","<img src=""CC1.png"" width=200 height=200/>","null","html-keyboard-response","631","648690","0.0-32.0-5.66","","","test","rightarrow","0","1","TRUE","FALSE",""
"null","<div style=""font-size:60px;""> </div>","null","html-keyboard-response","632","648992","0.0-32.0-6.66","","","fixation_4","","","","","",""
"355","arrows.png","39","image-keyboard-response","633","649348","0.0-32.0-7.66","","","test","rightarrow","0","1","TRUE","FALSE","true"
"null","<p style=""color: green; font-size:300%;"">correct: $2.50</p>","null","html-keyboard-response","634","650601","0.0-32.0-8.66","","","","","","","","",""
"null","<div style=""font-size:60px;""> </div>","null","html-keyboard-response","635","651154","0.0-32.0-0.67","","","fixation_1","","","","","",""
"null","","null","image-keyboard-response","636","651159","0.0-32.0-1.67","","","test","downarrow","1","1","TRUE","FALSE",""
"null","<div style=""font-size:60px;""> </div>","null","html-keyboard-response","637","651461","0.0-32.0-2.67","","","fixation_2","","","","","",""
"null","img_2.bmp","null","image-keyboard-response","638","652463","0.0-32.0-3.67","","","img_on","","","","","",""
"null","<div style=""font-size:60px;""> </div>","null","html-keyboard-response","639","652764","0.0-32.0-4.67","","","fixation_3","","","","","",""
"null","<img src=""CC1.png"" width=200 height=200/>","null","html-keyboard-response","640","653768","0.0-32.0-5.67","","","test","downarrow","1","1","TRUE","FALSE",""
"null","<div style=""font-size:60px;""> </div>","null","html-keyboard-response","641","654070","0.0-32.0-6.67","","","fixation_4","","","","","",""
"1.7000000001862645","arrows.png","40","image-keyboard-response","642","654073","0.0-32.0-7.67","","","test","downarrow","1","1","TRUE","FALSE","true"
"null","<p style=""color: green; font-size:300%;"">correct: $7.50</p>","null","html-keyboard-response","643","655326","0.0-32.0-8.67","","","","","","","","",""
"null","<div style=""font-size:60px;""> </div>","null","html-keyboard-response","644","656879","0.0-32.0-0.68","","","fixation_1","","","","","",""
"null","","null","image-keyboard-response","645","656885","0.0-32.0-1.68","","","test","uparrow","0","1","FALSE","FALSE",""
"null","<div style=""font-size:60px;""> </div>","null","html-keyboard-response","646","657187","0.0-32.0-2.68","","","fixation_2","","","","","",""
"null","img_4.bmp","null","image-keyboard-response","647","658189","0.0-32.0-3.68","","","img_on","","","","","",""
"null","<div style=""font-size:60px;""> </div>","null","html-keyboard-response","648","658491","0.0-32.0-4.68","","","fixation_3","","","","","",""
"null","","null","html-keyboard-response","649","658497","0.0-32.0-5.68","","","test","uparrow","0","1","FALSE","FALSE",""
"null","<div style=""font-size:60px;""> </div>","null","html-keyboard-response","650","658798","0.0-32.0-6.68","","","fixation_4","","","","","",""
"245","arrows.png","38","image-keyboard-response","651","659044","0.0-32.0-7.68","","","test","uparrow","0","1","FALSE","FALSE","true"
"null","<p style=""color: green; font-size:300%;"">correct: $2.50</p>","null","html-keyboard-response","652","660297","0.0-32.0-8.68","","","","","","","","",""
"null","<div style=""font-size:60px;""> </div>","null","html-keyboard-response","653","660850","0.0-32.0-0.69","","","fixation_1","","","","","",""
"null","","null","image-keyboard-response","654","660856","0.0-32.0-1.69","","","test","rightarrow","0","1","FALSE","FALSE",""
"null","<div style=""font-size:60px;""> </div>","null","html-keyboard-response","655","661158","0.0-32.0-2.69","","","fixation_2","","","","","",""
"null","img_1.bmp","null","image-keyboard-response","656","662159","0.0-32.0-3.69","","","img_on","","","","","",""
"null","<div style=""font-size:60px;""> </div>","null","html-keyboard-response","657","662461","0.0-32.0-4.69","","","fixation_3","","","","","",""
"null","","null","html-keyboard-response","658","662467","0.0-32.0-5.69","","","test","rightarrow","0","1","FALSE","FALSE",""
"null","<div style=""font-size:60px;""> </div>","null","html-keyboard-response","659","662768","0.0-32.0-6.69","","","fixation_4","","","","","",""
"140.6999999997206","arrows.png","39","image-keyboard-response","660","662911","0.0-32.0-7.69","","","test","rightarrow","0","1","FALSE","FALSE","true"
"null","<p style=""color: green; font-size:300%;"">correct: $2.50</p>","null","html-keyboard-response","661","664163","0.0-32.0-8.69","","","","","","","","",""
"null","<div style=""font-size:60px;""> </div>","null","html-keyboard-response","662","665717","0.0-32.0-0.70","","","fixation_1","","","","","",""
"null","","null","image-keyboard-response","663","665723","0.0-32.0-1.70","","","test","downarrow","1","1","FALSE","FALSE",""
"null","<div style=""font-size:60px;""> </div>","null","html-keyboard-response","664","666026","0.0-32.0-2.70","","","fixation_2","","","","","",""
"null","img_2.bmp","null","image-keyboard-response","665","667028","0.0-32.0-3.70","","","img_on","","","","","",""
"null","<div style=""font-size:60px;""> </div>","null","html-keyboard-response","666","667328","0.0-32.0-4.70","","","fixation_3","","","","","",""
"null","","null","html-keyboard-response","667","667333","0.0-32.0-5.70","","","test","downarrow","1","1","FALSE","FALSE",""
"null","<div style=""font-size:60px;""> </div>","null","html-keyboard-response","668","667635","0.0-32.0-6.70","","","fixation_4","","","","","",""
"286.3000000002794","arrows.png","40","image-keyboard-response","669","667923","0.0-32.0-7.70","","","test","downarrow","1","1","FALSE","FALSE","true"
"null","<p style=""color: green; font-size:300%;"">correct: $7.50</p>","null","html-keyboard-response","670","669176","0.0-32.0-8.70","","","","","","","","",""
"null","<div style=""font-size:60px;""> </div>","null","html-keyboard-response","671","669977","0.0-32.0-0.71","","","fixation_1","","","","","",""
"null","","null","image-keyboard-response","672","669983","0.0-32.0-1.71","","","test","leftarrow","1","1","FALSE","FALSE",""
"null","<div style=""font-size:60px;""> </div>","null","html-keyboard-response","673","670285","0.0-32.0-2.71","","","fixation_2","","","","","",""
"null","img_3.bmp","null","image-keyboard-response","674","671288","0.0-32.0-3.71","","","img_on","","","","","",""
"null","<div style=""font-size:60px;""> </div>","null","html-keyboard-response","675","671589","0.0-32.0-4.71","","","fixation_3","","","","","",""
"null","","null","html-keyboard-response","676","671596","0.0-32.0-5.71","","","test","leftarrow","1","1","FALSE","FALSE",""
"null","<div style=""font-size:60px;""> </div>","null","html-keyboard-response","677","671897","0.0-32.0-6.71","","","fixation_4","","","","","",""
"63.60000000009313","arrows.png","37","image-keyboard-response","678","671962","0.0-32.0-7.71","","","test","leftarrow","1","1","FALSE","FALSE","true"
"null","<p style=""color: green; font-size:300%;"">correct: $7.50</p>","null","html-keyboard-response","679","673215","0.0-32.0-8.71","","","","","","","","",""
"null","<div style=""font-size:60px;""> </div>","null","html-keyboard-response","680","674017","0.0-32.0-0.72","","","fixation_1","","","","","",""
"null","","null","image-keyboard-response","681","674023","0.0-32.0-1.72","","","test","uparrow","0","1","FALSE","FALSE",""
"null","<div style=""font-size:60px;""> </div>","null","html-keyboard-response","682","674325","0.0-32.0-2.72","","","fixation_2","","","","","",""
"null","img_4.bmp","null","image-keyboard-response","683","675328","0.0-32.0-3.72","","","img_on","","","","","",""
"null","<div style=""font-size:60px;""> </div>","null","html-keyboard-response","684","675630","0.0-32.0-4.72","","","fixation_3","","","","","",""
"null","","null","html-keyboard-response","685","675637","0.0-32.0-5.72","","","test","uparrow","0","1","FALSE","FALSE",""
"null","<div style=""font-size:60px;""> </div>","null","html-keyboard-response","686","675939","0.0-32.0-6.72","","","fixation_4","","","","","",""
"162.89999999990687","arrows.png","38","image-keyboard-response","687","676103","0.0-32.0-7.72","","","test","uparrow","0","1","FALSE","FALSE","true"
"null","<p style=""color: green; font-size:300%;"">correct: $2.50</p>","null","html-keyboard-response","688","677355","0.0-32.0-8.72","","","","","","","","",""
"null","<div style=""font-size:60px;""> </div>","null","html-keyboard-response","689","677908","0.0-32.0-0.73","","","fixation_1","","","","","",""
"null","","null","image-keyboard-response","690","677914","0.0-32.0-1.73","","","test","leftarrow","1","1","FALSE","FALSE",""
"null","<div style=""font-size:60px;""> </div>","null","html-keyboard-response","691","678215","0.0-32.0-2.73","","","fixation_2","","","","","",""
"null","img_3.bmp","null","image-keyboard-response","692","679217","0.0-32.0-3.73","","","img_on","","","","","",""
"null","<div style=""font-size:60px;""> </div>","null","html-keyboard-response","693","679519","0.0-32.0-4.73","","","fixation_3","","","","","",""
"null","","null","html-keyboard-response","694","679524","0.0-32.0-5.73","","","test","leftarrow","1","1","FALSE","FALSE",""
"null","<div style=""font-size:60px;""> </div>","null","html-keyboard-response","695","679825","0.0-32.0-6.73","","","fixation_4","","","","","",""
