"rt","stimulus","key_press","trial_type","trial_index","time_elapsed","internal_node_id","responses","view_history","test_part","correct_response","outcome","context","cc","sc","correct"
"3283.4000000059605","<p><b>Welcome to the Picture Learning Game!</b></p>
      <p>The game will take ~35 minutes to complete, and you can make up to $17.50.</p>
      <p>You must use a desktop or laptop computer computer (no mobile devices).</p>
      <p><em>Press any key to continue.</em></p>","32","html-keyboard-response","0","3315","0.0-0.0","","","","","","","","",""
"3781.5999999940395","","","survey-text","1","7101","0.0-1.0","{""aws"":""AK2C9AX5QJWUU""}","","","","","","","",""
"81658.30000001192","","","survey-text","2","88772","0.0-2.0","{""age"":""53"",""english"":""yes"",""handedness"":""right"",""desktop"":""yes""}","","","","","","","",""
"256185.19999998808","","","instructions","3","344960","0.0-3.0","","[{""page_index"":0,""viewing_time"":1547.0999999940395},{""page_index"":1,""viewing_time"":156110.59999999404},{""page_index"":2,""viewing_time"":39247.19999998808},{""page_index"":3,""viewing_time"":55879.40000000596},{""page_index"":4,""viewing_time"":3399.9000000059605}]","","","","","","",""
"null","sample1.bmp","null","image-keyboard-response","4","345962","0.0-4.0","","","","","","","","",""
"38.89999997615814","arrows.png","38","image-keyboard-response","5","346303","0.0-5.0","","","","","","","","",""
"33655.09999999404","","","instructions","6","379958","0.0-6.0","","[{""page_index"":0,""viewing_time"":2591.5999999940395},{""page_index"":1,""viewing_time"":26415.30000001192},{""page_index"":2,""viewing_time"":4647.899999976158}]","","","","","","",""
"null","sample1.bmp","null","image-keyboard-response","7","380968","0.0-7.0","","","","","","","","",""
"null","<img src=""CC1.png"" width=200 height=200/>","null","html-keyboard-response","8","382271","0.0-8.0","","","","","","","","",""
"617.0999999940395","arrows.png","38","image-keyboard-response","9","383190","0.0-9.0","","","","","","","","",""
"7328","","","instructions","10","390518","0.0-10.0","","[{""page_index"":0,""viewing_time"":2071.699999988079},{""page_index"":1,""viewing_time"":5256}]","","","","","","",""
"null","sample1.bmp","null","image-keyboard-response","11","391521","0.0-11.0","","","","","","","","",""
"null","<img src=""CC2.png"" width=200 height=200/>","null","html-keyboard-response","12","392823","0.0-12.0","","","","","","","","",""
"377.5","arrows.png","39","image-keyboard-response","13","393502","0.0-13.0","","","","","","","","",""
"122150.39999997616","","","instructions","14","515653","0.0-14.0","","[{""page_index"":0,""viewing_time"":2559.2999999821186},{""page_index"":1,""viewing_time"":74015.30000001192},{""page_index"":2,""viewing_time"":29607.59999999404},{""page_index"":3,""viewing_time"":3792},{""page_index"":4,""viewing_time"":12175.90000000596}]","","","","","","",""
"null","sample1.bmp","null","image-keyboard-response","15","516656","0.0-15.0","","","","","","","","",""
"639.5999999940395","arrows.png","39","image-keyboard-response","16","517596","0.0-16.0","","","","","","","","",""
"22648.5","","","instructions","17","540245","0.0-17.0","","[{""page_index"":0,""viewing_time"":4480.200000017881},{""page_index"":1,""viewing_time"":8112.4000000059605},{""page_index"":2,""viewing_time"":10055.09999999404}]","","","","","","",""
"null","sample1.bmp","null","image-keyboard-response","18","541247","0.0-18.0","","","","","","","","",""
"702.3000000119209","arrows.png","39","image-keyboard-response","19","542252","0.0-19.0","","","","","","","","",""
"null","<p style=""color: green; font-size:300%;"">correct</p>","null","html-keyboard-response","20","543253","0.0-20.0","","","","","","","","",""
"null","switch_cue.png","null","image-keyboard-response","21","544555","0.0-21.0","","","","","","","","",""
"null","sample1.bmp","null","image-keyboard-response","22","545864","0.0-22.0","","","","","","","","",""
"null","<img src=""CC2.png"" width=200 height=200/>","null","html-keyboard-response","23","547167","0.0-23.0","","","","","","","","",""
"2215","arrows.png","39","image-keyboard-response","24","549684","0.0-24.0","","","","","","","","",""
"null","<p style=""color: green; font-size:300%;"">correct</p>","null","html-keyboard-response","25","550685","0.0-25.0","","","","","","","","",""
"null","switch_cue.png","null","image-keyboard-response","26","551987","0.0-26.0","","","","","","","","",""
"null","sample1.bmp","null","image-keyboard-response","27","553294","0.0-27.0","","","","","","","","",""
"null","<img src=""CC1.png"" width=200 height=200/>","null","html-keyboard-response","28","554596","0.0-28.0","","","","","","","","",""
"450.09999999403954","arrows.png","38","image-keyboard-response","29","555348","0.0-29.0","","","","","","","","",""
"null","<p style=""color: green; font-size:300%;"">correct</p>","null","html-keyboard-response","30","556350","0.0-30.0","","","","","","","","",""
"191078.69999998808","","","instructions","31","747731","0.0-31.0","","[{""page_index"":0,""viewing_time"":21767.69999998808},{""page_index"":1,""viewing_time"":1448.0999999940395},{""page_index"":2,""viewing_time"":14343.90000000596},{""page_index"":3,""viewing_time"":16591.90000000596},{""page_index"":4,""viewing_time"":97902.90000000596},{""page_index"":5,""viewing_time"":4671.9000000059605},{""page_index"":6,""viewing_time"":29287.69999998808},{""page_index"":7,""viewing_time"":5064}]","","","","","","",""
"null","<div style=""font-size:60px;""> </div>","null","html-keyboard-response","32","748033","0.0-32.0-0.0","","","fixation_1","","","","","",""
"null","","null","image-keyboard-response","33","748038","0.0-32.0-1.0","","","test","rightarrow","1","1","TRUE","FALSE",""
"null","<div style=""font-size:60px;""> </div>","null","html-keyboard-response","34","748338","0.0-32.0-2.0","","","fixation_2","","","","","",""
"null","img_2.bmp","null","image-keyboard-response","35","749339","0.0-32.0-3.0","","","img_on","","","","","",""
"null","<div style=""font-size:60px;""> </div>","null","html-keyboard-response","36","749640","0.0-32.0-4.0","","","fixation_3","","","","","",""
"null","<img src=""CC1.png"" width=200 height=200/>","null","html-keyboard-response","37","750641","0.0-32.0-5.0","","","test","rightarrow","1","1","TRUE","FALSE",""
"null","<div style=""font-size:60px;""> </div>","null","html-keyboard-response","38","750942","0.0-32.0-6.0","","","fixation_4","","","","","",""
"922.4000000059605","arrows.png","38","image-keyboard-response","39","751866","0.0-32.0-7.0","","","test","rightarrow","1","1","TRUE","FALSE","false"
"null","<p style=""color: red; font-size:300%;"">incorrect: $0</p>","null","html-keyboard-response","40","753119","0.0-32.0-8.0","","","","","","","","",""
"null","<div style=""font-size:60px;""> </div>","null","html-keyboard-response","41","753922","0.0-32.0-0.1","","","fixation_1","","","","","",""
"null","","null","image-keyboard-response","42","753927","0.0-32.0-1.1","","","test","leftarrow","0","1","TRUE","FALSE",""
"null","<div style=""font-size:60px;""> </div>","null","html-keyboard-response","43","754229","0.0-32.0-2.1","","","fixation_2","","","","","",""
"null","img_4.bmp","null","image-keyboard-response","44","755231","0.0-32.0-3.1","","","img_on","","","","","",""
"null","<div style=""font-size:60px;""> </div>","null","html-keyboard-response","45","755533","0.0-32.0-4.1","","","fixation_3","","","","","",""
"null","<img src=""CC1.png"" width=200 height=200/>","null","html-keyboard-response","46","756535","0.0-32.0-5.1","","","test","leftarrow","0","1","TRUE","FALSE",""
"null","<div style=""font-size:60px;""> </div>","null","html-keyboard-response","47","756836","0.0-32.0-6.1","","","fixation_4","","","","","",""
"661.1999999880791","arrows.png","39","image-keyboard-response","48","757498","0.0-32.0-7.1","","","test","leftarrow","0","1","TRUE","FALSE","false"
"null","<p style=""color: red; font-size:300%;"">incorrect: $0</p>","null","html-keyboard-response","49","758751","0.0-32.0-8.1","","","","","","","","",""
"null","<div style=""font-size:60px;""> </div>","null","html-keyboard-response","50","760053","0.0-32.0-0.2","","","fixation_1","","","","","",""
"null","","null","image-keyboard-response","51","760059","0.0-32.0-1.2","","","test","downarrow","0","1","TRUE","FALSE",""
"null","<div style=""font-size:60px;""> </div>","null","html-keyboard-response","52","760360","0.0-32.0-2.2","","","fixation_2","","","","","",""
"null","img_3.bmp","null","image-keyboard-response","53","761362","0.0-32.0-3.2","","","img_on","","","","","",""
"null","<div style=""font-size:60px;""> </div>","null","html-keyboard-response","54","761684","0.0-32.0-4.2","","","fixation_3","","","","","",""
"null","<img src=""CC1.png"" width=200 height=200/>","null","html-keyboard-response","55","762687","0.0-32.0-5.2","","","test","downarrow","0","1","TRUE","FALSE",""
"null","<div style=""font-size:60px;""> </div>","null","html-keyboard-response","56","762988","0.0-32.0-6.2","","","fixation_4","","","","","",""
"333.80000001192093","arrows.png","38","image-keyboard-response","57","763322","0.0-32.0-7.2","","","test","downarrow","0","1","TRUE","FALSE","false"
"null","<p style=""color: red; font-size:300%;"">incorrect: $0</p>","null","html-keyboard-response","58","764576","0.0-32.0-8.2","","","","","","","","",""
"null","<div style=""font-size:60px;""> </div>","null","html-keyboard-response","59","765879","0.0-32.0-0.3","","","fixation_1","","","","","",""
"null","","null","image-keyboard-response","60","765884","0.0-32.0-1.3","","","test","uparrow","1","1","TRUE","FALSE",""
"null","<div style=""font-size:60px;""> </div>","null","html-keyboard-response","61","766186","0.0-32.0-2.3","","","fixation_2","","","","","",""
"null","img_1.bmp","null","image-keyboard-response","62","767187","0.0-32.0-3.3","","","img_on","","","","","",""
"null","<div style=""font-size:60px;""> </div>","null","html-keyboard-response","63","767488","0.0-32.0-4.3","","","fixation_3","","","","","",""
"null","<img src=""CC1.png"" width=200 height=200/>","null","html-keyboard-response","64","768490","0.0-32.0-5.3","","","test","uparrow","1","1","TRUE","FALSE",""
"null","<div style=""font-size:60px;""> </div>","null","html-keyboard-response","65","768794","0.0-32.0-6.3","","","fixation_4","","","","","",""
"1638.7000000178814","arrows.png","40","image-keyboard-response","66","770434","0.0-32.0-7.3","","","test","uparrow","1","1","TRUE","FALSE","false"
"null","<p style=""color: red; font-size:300%;"">incorrect: $0</p>","null","html-keyboard-response","67","771686","0.0-32.0-8.3","","","","","","","","",""
"null","<div style=""font-size:60px;""> </div>","null","html-keyboard-response","68","772489","0.0-32.0-0.4","","","fixation_1","","","","","",""
"null","","null","image-keyboard-response","69","772495","0.0-32.0-1.4","","","test","uparrow","1","1","FALSE","FALSE",""
"null","<div style=""font-size:60px;""> </div>","null","html-keyboard-response","70","772799","0.0-32.0-2.4","","","fixation_2","","","","","",""
"null","img_1.bmp","null","image-keyboard-response","71","773801","0.0-32.0-3.4","","","img_on","","","","","",""
"null","<div style=""font-size:60px;""> </div>","null","html-keyboard-response","72","774103","0.0-32.0-4.4","","","fixation_3","","","","","",""
"null","","null","html-keyboard-response","73","774107","0.0-32.0-5.4","","","test","uparrow","1","1","FALSE","FALSE",""
"null","<div style=""font-size:60px;""> </div>","null","html-keyboard-response","74","774409","0.0-32.0-6.4","","","fixation_4","","","","","",""
"1752.9000000059605","arrows.png","39","image-keyboard-response","75","776163","0.0-32.0-7.4","","","test","uparrow","1","1","FALSE","FALSE","false"
"null","<p style=""color: red; font-size:300%;"">incorrect: $0</p>","null","html-keyboard-response","76","777414","0.0-32.0-8.4","","","","","","","","",""
"null","<div style=""font-size:60px;""> </div>","null","html-keyboard-response","77","778971","0.0-32.0-0.5","","","fixation_1","","","","","",""
"null","","null","image-keyboard-response","78","778977","0.0-32.0-1.5","","","test","downarrow","0","1","FALSE","FALSE",""
"null","<div style=""font-size:60px;""> </div>","null","html-keyboard-response","79","779278","0.0-32.0-2.5","","","fixation_2","","","","","",""
"null","img_3.bmp","null","image-keyboard-response","80","780280","0.0-32.0-3.5","","","img_on","","","","","",""
"null","<div style=""font-size:60px;""> </div>","null","html-keyboard-response","81","780581","0.0-32.0-4.5","","","fixation_3","","","","","",""
"null","","null","html-keyboard-response","82","780586","0.0-32.0-5.5","","","test","downarrow","0","1","FALSE","FALSE",""
"null","<div style=""font-size:60px;""> </div>","null","html-keyboard-response","83","780887","0.0-32.0-6.5","","","fixation_4","","","","","",""
"1033.5","arrows.png","38","image-keyboard-response","84","781922","0.0-32.0-7.5","","","test","downarrow","0","1","FALSE","FALSE","false"
"null","<p style=""color: red; font-size:300%;"">incorrect: $0</p>","null","html-keyboard-response","85","783174","0.0-32.0-8.5","","","","","","","","",""
"null","<div style=""font-size:60px;""> </div>","null","html-keyboard-response","86","784727","0.0-32.0-0.6","","","fixation_1","","","","","",""
"null","","null","image-keyboard-response","87","784732","0.0-32.0-1.6","","","test","leftarrow","0","1","FALSE","FALSE",""
"null","<div style=""font-size:60px;""> </div>","null","html-keyboard-response","88","785036","0.0-32.0-2.6","","","fixation_2","","","","","",""
"null","img_4.bmp","null","image-keyboard-response","89","786039","0.0-32.0-3.6","","","img_on","","","","","",""
"null","<div style=""font-size:60px;""> </div>","null","html-keyboard-response","90","786352","0.0-32.0-4.6","","","fixation_3","","","","","",""
"null","","null","html-keyboard-response","91","786363","0.0-32.0-5.6","","","test","leftarrow","0","1","FALSE","FALSE",""
"null","<div style=""font-size:60px;""> </div>","null","html-keyboard-response","92","786663","0.0-32.0-6.6","","","fixation_4","","","","","",""
"825.9000000059605","arrows.png","37","image-keyboard-response","93","787490","0.0-32.0-7.6","","","test","leftarrow","0","1","FALSE","FALSE","true"
"null","<p style=""color: green; font-size:300%;"">correct: $2.50</p>","null","html-keyboard-response","94","788742","0.0-32.0-8.6","","","","","","","","",""
"null","<div style=""font-size:60px;""> </div>","null","html-keyboard-response","95","790310","0.0-32.0-0.7","","","fixation_1","","","","","",""
"null","","null","image-keyboard-response","96","790316","0.0-32.0-1.7","","","test","rightarrow","1","1","FALSE","FALSE",""
"null","<div style=""font-size:60px;""> </div>","null","html-keyboard-response","97","790618","0.0-32.0-2.7","","","fixation_2","","","","","",""
"null","img_2.bmp","null","image-keyboard-response","98","791618","0.0-32.0-3.7","","","img_on","","","","","",""
"null","<div style=""font-size:60px;""> </div>","null","html-keyboard-response","99","791920","0.0-32.0-4.7","","","fixation_3","","","","","",""
"null","","null","html-keyboard-response","100","791925","0.0-32.0-5.7","","","test","rightarrow","1","1","FALSE","FALSE",""
"null","<div style=""font-size:60px;""> </div>","null","html-keyboard-response","101","792227","0.0-32.0-6.7","","","fixation_4","","","","","",""
"358.09999999403954","arrows.png","37","image-keyboard-response","102","792586","0.0-32.0-7.7","","","test","rightarrow","1","1","FALSE","FALSE","false"
"null","<p style=""color: red; font-size:300%;"">incorrect: $0</p>","null","html-keyboard-response","103","793851","0.0-32.0-8.7","","","","","","","","",""
"null","<div style=""font-size:60px;""> </div>","null","html-keyboard-response","104","794403","0.0-32.0-0.8","","","fixation_1","","","","","",""
"null","","null","image-keyboard-response","105","794408","0.0-32.0-1.8","","","test","downarrow","0","1","FALSE","FALSE",""
"null","<div style=""font-size:60px;""> </div>","null","html-keyboard-response","106","794715","0.0-32.0-2.8","","","fixation_2","","","","","",""
"null","img_3.bmp","null","image-keyboard-response","107","795717","0.0-32.0-3.8","","","img_on","","","","","",""
"null","<div style=""font-size:60px;""> </div>","null","html-keyboard-response","108","796019","0.0-32.0-4.8","","","fixation_3","","","","","",""
"null","","null","html-keyboard-response","109","796024","0.0-32.0-5.8","","","test","downarrow","0","1","FALSE","FALSE",""
"null","<div style=""font-size:60px;""> </div>","null","html-keyboard-response","110","796326","0.0-32.0-6.8","","","fixation_4","","","","","",""
"1508.0999999940395","arrows.png","39","image-keyboard-response","111","797835","0.0-32.0-7.8","","","test","downarrow","0","1","FALSE","FALSE","false"
"null","<p style=""color: red; font-size:300%;"">incorrect: $0</p>","null","html-keyboard-response","112","799087","0.0-32.0-8.8","","","","","","","","",""
"null","<div style=""font-size:60px;""> </div>","null","html-keyboard-response","113","799889","0.0-32.0-0.9","","","fixation_1","","","","","",""
"null","","null","image-keyboard-response","114","799894","0.0-32.0-1.9","","","test","leftarrow","0","1","FALSE","FALSE",""
"null","<div style=""font-size:60px;""> </div>","null","html-keyboard-response","115","800195","0.0-32.0-2.9","","","fixation_2","","","","","",""
"null","img_4.bmp","null","image-keyboard-response","116","801197","0.0-32.0-3.9","","","img_on","","","","","",""
"null","<div style=""font-size:60px;""> </div>","null","html-keyboard-response","117","801499","0.0-32.0-4.9","","","fixation_3","","","","","",""
"null","","null","html-keyboard-response","118","801504","0.0-32.0-5.9","","","test","leftarrow","0","1","FALSE","FALSE",""
"null","<div style=""font-size:60px;""> </div>","null","html-keyboard-response","119","801805","0.0-32.0-6.9","","","fixation_4","","","","","",""
"411.59999999403954","arrows.png","37","image-keyboard-response","120","802218","0.0-32.0-7.9","","","test","leftarrow","0","1","FALSE","FALSE","true"
"null","<p style=""color: green; font-size:300%;"">correct: $2.50</p>","null","html-keyboard-response","121","803469","0.0-32.0-8.9","","","","","","","","",""
"null","<div style=""font-size:60px;""> </div>","null","html-keyboard-response","122","805022","0.0-32.0-0.10","","","fixation_1","","","","","",""
"null","","null","image-keyboard-response","123","805029","0.0-32.0-1.10","","","test","rightarrow","1","1","FALSE","FALSE",""
"null","<div style=""font-size:60px;""> </div>","null","html-keyboard-response","124","805329","0.0-32.0-2.10","","","fixation_2","","","","","",""
"null","img_2.bmp","null","image-keyboard-response","125","806331","0.0-32.0-3.10","","","img_on","","","","","",""
"null","<div style=""font-size:60px;""> </div>","null","html-keyboard-response","126","806632","0.0-32.0-4.10","","","fixation_3","","","","","",""
"null","","null","html-keyboard-response","127","806637","0.0-32.0-5.10","","","test","rightarrow","1","1","FALSE","FALSE",""
"null","<div style=""font-size:60px;""> </div>","null","html-keyboard-response","128","806938","0.0-32.0-6.10","","","fixation_4","","","","","",""
"374.59999999403954","arrows.png","39","image-keyboard-response","129","807314","0.0-32.0-7.10","","","test","rightarrow","1","1","FALSE","FALSE","true"
"null","<p style=""color: green; font-size:300%;"">correct: $7.50</p>","null","html-keyboard-response","130","808573","0.0-32.0-8.10","","","","","","","","",""
"null","<div style=""font-size:60px;""> </div>","null","html-keyboard-response","131","809375","0.0-32.0-0.11","","","fixation_1","","","","","",""
"null","","null","image-keyboard-response","132","809380","0.0-32.0-1.11","","","test","uparrow","1","1","FALSE","FALSE",""
"null","<div style=""font-size:60px;""> </div>","null","html-keyboard-response","133","809682","0.0-32.0-2.11","","","fixation_2","","","","","",""
"null","img_1.bmp","null","image-keyboard-response","134","810684","0.0-32.0-3.11","","","img_on","","","","","",""
"null","<div style=""font-size:60px;""> </div>","null","html-keyboard-response","135","810985","0.0-32.0-4.11","","","fixation_3","","","","","",""
"null","","null","html-keyboard-response","136","810990","0.0-32.0-5.11","","","test","uparrow","1","1","FALSE","FALSE",""
"null","<div style=""font-size:60px;""> </div>","null","html-keyboard-response","137","811291","0.0-32.0-6.11","","","fixation_4","","","","","",""
"854.7000000178814","arrows.png","40","image-keyboard-response","138","812146","0.0-32.0-7.11","","","test","uparrow","1","1","FALSE","FALSE","false"
"null","<p style=""color: red; font-size:300%;"">incorrect: $0</p>","null","html-keyboard-response","139","813398","0.0-32.0-8.11","","","","","","","","",""
"null","<div style=""font-size:60px;""> </div>","null","html-keyboard-response","140","814700","0.0-32.0-0.12","","","fixation_1","","","","","",""
"null","","null","image-keyboard-response","141","814706","0.0-32.0-1.12","","","test","leftarrow","0","1","FALSE","FALSE",""
"null","<div style=""font-size:60px;""> </div>","null","html-keyboard-response","142","815008","0.0-32.0-2.12","","","fixation_2","","","","","",""
"null","img_4.bmp","null","image-keyboard-response","143","816009","0.0-32.0-3.12","","","img_on","","","","","",""
"null","<div style=""font-size:60px;""> </div>","null","html-keyboard-response","144","816311","0.0-32.0-4.12","","","fixation_3","","","","","",""
"null","","null","html-keyboard-response","145","816317","0.0-32.0-5.12","","","test","leftarrow","0","1","FALSE","FALSE",""
"null","<div style=""font-size:60px;""> </div>","null","html-keyboard-response","146","816626","0.0-32.0-6.12","","","fixation_4","","","","","",""
"990.5999999940395","arrows.png","37","image-keyboard-response","147","817617","0.0-32.0-7.12","","","test","leftarrow","0","1","FALSE","FALSE","true"
"null","<p style=""color: green; font-size:300%;"">correct: $2.50</p>","null","html-keyboard-response","148","818870","0.0-32.0-8.12","","","","","","","","",""
"null","<div style=""font-size:60px;""> </div>","null","html-keyboard-response","149","819922","0.0-32.0-0.13","","","fixation_1","","","","","",""
"null","","null","image-keyboard-response","150","819927","0.0-32.0-1.13","","","test","uparrow","1","1","FALSE","FALSE",""
"null","<div style=""font-size:60px;""> </div>","null","html-keyboard-response","151","820227","0.0-32.0-2.13","","","fixation_2","","","","","",""
"null","img_1.bmp","null","image-keyboard-response","152","821229","0.0-32.0-3.13","","","img_on","","","","","",""
"null","<div style=""font-size:60px;""> </div>","null","html-keyboard-response","153","821581","0.0-32.0-4.13","","","fixation_3","","","","","",""
"null","","null","html-keyboard-response","154","821645","0.0-32.0-5.13","","","test","uparrow","1","1","FALSE","FALSE",""
"null","<div style=""font-size:60px;""> </div>","null","html-keyboard-response","155","821948","0.0-32.0-6.13","","","fixation_4","","","","","",""
"733.4000000059605","arrows.png","38","image-keyboard-response","156","822682","0.0-32.0-7.13","","","test","uparrow","1","1","FALSE","FALSE","true"
"null","<p style=""color: green; font-size:300%;"">correct: $7.50</p>","null","html-keyboard-response","157","823935","0.0-32.0-8.13","","","","","","","","",""
"null","<div style=""font-size:60px;""> </div>","null","html-keyboard-response","158","825238","0.0-32.0-0.14","","","fixation_1","","","","","",""
"null","","null","image-keyboard-response","159","825243","0.0-32.0-1.14","","","test","downarrow","0","1","FALSE","FALSE",""
"null","<div style=""font-size:60px;""> </div>","null","html-keyboard-response","160","825544","0.0-32.0-2.14","","","fixation_2","","","","","",""
"null","img_3.bmp","null","image-keyboard-response","161","826545","0.0-32.0-3.14","","","img_on","","","","","",""
"null","<div style=""font-size:60px;""> </div>","null","html-keyboard-response","162","826846","0.0-32.0-4.14","","","fixation_3","","","","","",""
"null","","null","html-keyboard-response","163","826851","0.0-32.0-5.14","","","test","downarrow","0","1","FALSE","FALSE",""
"null","<div style=""font-size:60px;""> </div>","null","html-keyboard-response","164","827152","0.0-32.0-6.14","","","fixation_4","","","","","",""
"1736.9000000059605","arrows.png","39","image-keyboard-response","165","828889","0.0-32.0-7.14","","","test","downarrow","0","1","FALSE","FALSE","false"
"null","<p style=""color: red; font-size:300%;"">incorrect: $0</p>","null","html-keyboard-response","166","830141","0.0-32.0-8.14","","","","","","","","",""
"null","<div style=""font-size:60px;""> </div>","null","html-keyboard-response","167","831193","0.0-32.0-0.15","","","fixation_1","","","","","",""
"null","","null","image-keyboard-response","168","831199","0.0-32.0-1.15","","","test","rightarrow","1","1","FALSE","FALSE",""
"null","<div style=""font-size:60px;""> </div>","null","html-keyboard-response","169","831501","0.0-32.0-2.15","","","fixation_2","","","","","",""
"null","img_2.bmp","null","image-keyboard-response","170","832503","0.0-32.0-3.15","","","img_on","","","","","",""
"null","<div style=""font-size:60px;""> </div>","null","html-keyboard-response","171","832807","0.0-32.0-4.15","","","fixation_3","","","","","",""
"null","","null","html-keyboard-response","172","832812","0.0-32.0-5.15","","","test","rightarrow","1","1","FALSE","FALSE",""
"null","<div style=""font-size:60px;""> </div>","null","html-keyboard-response","173","833113","0.0-32.0-6.15","","","fixation_4","","","","","",""
"552.4000000059605","arrows.png","39","image-keyboard-response","174","833666","0.0-32.0-7.15","","","test","rightarrow","1","1","FALSE","FALSE","true"
"null","<p style=""color: green; font-size:300%;"">correct: $7.50</p>","null","html-keyboard-response","175","834918","0.0-32.0-8.15","","","","","","","","",""
"null","<div style=""font-size:60px;""> </div>","null","html-keyboard-response","176","835469","0.0-32.0-0.16","","","fixation_1","","","","","",""
"null","","null","image-keyboard-response","177","835475","0.0-32.0-1.16","","","test","leftarrow","0","1","FALSE","FALSE",""
"null","<div style=""font-size:60px;""> </div>","null","html-keyboard-response","178","835779","0.0-32.0-2.16","","","fixation_2","","","","","",""
"null","img_4.bmp","null","image-keyboard-response","179","836780","0.0-32.0-3.16","","","img_on","","","","","",""
"null","<div style=""font-size:60px;""> </div>","null","html-keyboard-response","180","837081","0.0-32.0-4.16","","","fixation_3","","","","","",""
"null","","null","html-keyboard-response","181","837086","0.0-32.0-5.16","","","test","leftarrow","0","1","FALSE","FALSE",""
"null","<div style=""font-size:60px;""> </div>","null","html-keyboard-response","182","837388","0.0-32.0-6.16","","","fixation_4","","","","","",""
"405.09999999403954","arrows.png","37","image-keyboard-response","183","837793","0.0-32.0-7.16","","","test","leftarrow","0","1","FALSE","FALSE","true"
"null","<p style=""color: green; font-size:300%;"">correct: $2.50</p>","null","html-keyboard-response","184","839045","0.0-32.0-8.16","","","","","","","","",""
"null","<div style=""font-size:60px;""> </div>","null","html-keyboard-response","185","839598","0.0-32.0-0.17","","","fixation_1","","","","","",""
"null","","null","image-keyboard-response","186","839603","0.0-32.0-1.17","","","test","uparrow","1","1","FALSE","FALSE",""
"null","<div style=""font-size:60px;""> </div>","null","html-keyboard-response","187","839904","0.0-32.0-2.17","","","fixation_2","","","","","",""
"null","img_1.bmp","null","image-keyboard-response","188","840905","0.0-32.0-3.17","","","img_on","","","","","",""
"null","<div style=""font-size:60px;""> </div>","null","html-keyboard-response","189","841207","0.0-32.0-4.17","","","fixation_3","","","","","",""
"null","","null","html-keyboard-response","190","841212","0.0-32.0-5.17","","","test","uparrow","1","1","FALSE","FALSE",""
"null","<div style=""font-size:60px;""> </div>","null","html-keyboard-response","191","841513","0.0-32.0-6.17","","","fixation_4","","","","","",""
"471.5","arrows.png","38","image-keyboard-response","192","841985","0.0-32.0-7.17","","","test","uparrow","1","1","FALSE","FALSE","true"
"null","<p style=""color: green; font-size:300%;"">correct: $7.50</p>","null","html-keyboard-response","193","843237","0.0-32.0-8.17","","","","","","","","",""
"null","<div style=""font-size:60px;""> </div>","null","html-keyboard-response","194","844789","0.0-32.0-0.18","","","fixation_1","","","","","",""
"null","switch_cue.png","null","image-keyboard-response","195","845791","0.0-32.0-1.18","","","test","downarrow","0","1","TRUE","TRUE",""
"null","<div style=""font-size:60px;""> </div>","null","html-keyboard-response","196","846093","0.0-32.0-2.18","","","fixation_2","","","","","",""
"null","img_3.bmp","null","image-keyboard-response","197","847093","0.0-32.0-3.18","","","img_on","","","","","",""
"null","<div style=""font-size:60px;""> </div>","null","html-keyboard-response","198","847395","0.0-32.0-4.18","","","fixation_3","","","","","",""
"null","<img src=""CC1.png"" width=200 height=200/>","null","html-keyboard-response","199","848396","0.0-32.0-5.18","","","test","downarrow","0","1","TRUE","TRUE",""
"null","<div style=""font-size:60px;""> </div>","null","html-keyboard-response","200","848697","0.0-32.0-6.18","","","fixation_4","","","","","",""
"879.2999999821186","arrows.png","38","image-keyboard-response","201","849577","0.0-32.0-7.18","","","test","downarrow","0","1","TRUE","TRUE","false"
"null","<p style=""color: red; font-size:300%;"">incorrect: $0</p>","null","html-keyboard-response","202","850829","0.0-32.0-8.18","","","","","","","","",""
"null","<div style=""font-size:60px;""> </div>","null","html-keyboard-response","203","851881","0.0-32.0-0.19","","","fixation_1","","","","","",""
"null","switch_cue.png","null","image-keyboard-response","204","852884","0.0-32.0-1.19","","","test","rightarrow","1","1","TRUE","TRUE",""
"null","<div style=""font-size:60px;""> </div>","null","html-keyboard-response","205","853185","0.0-32.0-2.19","","","fixation_2","","","","","",""
"null","img_2.bmp","null","image-keyboard-response","206","854187","0.0-32.0-3.19","","","img_on","","","","","",""
"null","<div style=""font-size:60px;""> </div>","null","html-keyboard-response","207","854488","0.0-32.0-4.19","","","fixation_3","","","","","",""
"null","<img src=""CC1.png"" width=200 height=200/>","null","html-keyboard-response","208","855490","0.0-32.0-5.19","","","test","rightarrow","1","1","TRUE","TRUE",""
"null","<div style=""font-size:60px;""> </div>","null","html-keyboard-response","209","855791","0.0-32.0-6.19","","","fixation_4","","","","","",""
"633.6999999880791","arrows.png","37","image-keyboard-response","210","856425","0.0-32.0-7.19","","","test","rightarrow","1","1","TRUE","TRUE","false"
"null","<p style=""color: red; font-size:300%;"">incorrect: $0</p>","null","html-keyboard-response","211","857679","0.0-32.0-8.19","","","","","","","","",""
"null","<div style=""font-size:60px;""> </div>","null","html-keyboard-response","212","858732","0.0-32.0-0.20","","","fixation_1","","","","","",""
"null","switch_cue.png","null","image-keyboard-response","213","859733","0.0-32.0-1.20","","","test","rightarrow","0","2","TRUE","TRUE",""
"null","<div style=""font-size:60px;""> </div>","null","html-keyboard-response","214","860043","0.0-32.0-2.20","","","fixation_2","","","","","",""
"null","img_1.bmp","null","image-keyboard-response","215","861044","0.0-32.0-3.20","","","img_on","","","","","",""
"null","<div style=""font-size:60px;""> </div>","null","html-keyboard-response","216","861345","0.0-32.0-4.20","","","fixation_3","","","","","",""
"null","<img src=""CC2.png"" width=200 height=200/>","null","html-keyboard-response","217","862348","0.0-32.0-5.20","","","test","rightarrow","0","2","TRUE","TRUE",""
"null","<div style=""font-size:60px;""> </div>","null","html-keyboard-response","218","862649","0.0-32.0-6.20","","","fixation_4","","","","","",""
"726.6999999880791","arrows.png","39","image-keyboard-response","219","863377","0.0-32.0-7.20","","","test","rightarrow","0","2","TRUE","TRUE","true"
"null","<p style=""color: green; font-size:300%;"">correct: $2.50</p>","null","html-keyboard-response","220","864645","0.0-32.0-8.20","","","","","","","","",""
"null","<div style=""font-size:60px;""> </div>","null","html-keyboard-response","221","865995","0.0-32.0-0.21","","","fixation_1","","","","","",""
"null","","null","image-keyboard-response","222","866016","0.0-32.0-1.21","","","test","uparrow","0","2","TRUE","FALSE",""
"null","<div style=""font-size:60px;""> </div>","null","html-keyboard-response","223","866317","0.0-32.0-2.21","","","fixation_2","","","","","",""
"null","img_4.bmp","null","image-keyboard-response","224","867318","0.0-32.0-3.21","","","img_on","","","","","",""
"null","<div style=""font-size:60px;""> </div>","null","html-keyboard-response","225","867619","0.0-32.0-4.21","","","fixation_3","","","","","",""
"null","<img src=""CC2.png"" width=200 height=200/>","null","html-keyboard-response","226","868621","0.0-32.0-5.21","","","test","uparrow","0","2","TRUE","FALSE",""
"null","<div style=""font-size:60px;""> </div>","null","html-keyboard-response","227","868929","0.0-32.0-6.21","","","fixation_4","","","","","",""
"1518.7999999821186","arrows.png","37","image-keyboard-response","228","870449","0.0-32.0-7.21","","","test","uparrow","0","2","TRUE","FALSE","false"
"null","<p style=""color: red; font-size:300%;"">incorrect: $0</p>","null","html-keyboard-response","229","871757","0.0-32.0-8.21","","","","","","","","",""
"null","<div style=""font-size:60px;""> </div>","null","html-keyboard-response","230","873308","0.0-32.0-0.22","","","fixation_1","","","","","",""
"null","","null","image-keyboard-response","231","873314","0.0-32.0-1.22","","","test","leftarrow","1","2","TRUE","FALSE",""
"null","<div style=""font-size:60px;""> </div>","null","html-keyboard-response","232","873614","0.0-32.0-2.22","","","fixation_2","","","","","",""
"null","img_3.bmp","null","image-keyboard-response","233","874615","0.0-32.0-3.22","","","img_on","","","","","",""
"null","<div style=""font-size:60px;""> </div>","null","html-keyboard-response","234","874917","0.0-32.0-4.22","","","fixation_3","","","","","",""
"null","<img src=""CC2.png"" width=200 height=200/>","null","html-keyboard-response","235","875931","0.0-32.0-5.22","","","test","leftarrow","1","2","TRUE","FALSE",""
"null","<div style=""font-size:60px;""> </div>","null","html-keyboard-response","236","876232","0.0-32.0-6.22","","","fixation_4","","","","","",""
"336.40000000596046","arrows.png","38","image-keyboard-response","237","876569","0.0-32.0-7.22","","","test","leftarrow","1","2","TRUE","FALSE","false"
"null","<p style=""color: red; font-size:300%;"">incorrect: $0</p>","null","html-keyboard-response","238","877820","0.0-32.0-8.22","","","","","","","","",""
"null","<div style=""font-size:60px;""> </div>","null","html-keyboard-response","239","878373","0.0-32.0-0.23","","","fixation_1","","","","","",""
"null","","null","image-keyboard-response","240","878378","0.0-32.0-1.23","","","test","downarrow","1","2","TRUE","FALSE",""
"null","<div style=""font-size:60px;""> </div>","null","html-keyboard-response","241","878679","0.0-32.0-2.23","","","fixation_2","","","","","",""
"null","img_2.bmp","null","image-keyboard-response","242","879681","0.0-32.0-3.23","","","img_on","","","","","",""
"null","<div style=""font-size:60px;""> </div>","null","html-keyboard-response","243","879982","0.0-32.0-4.23","","","fixation_3","","","","","",""
"null","<img src=""CC2.png"" width=200 height=200/>","null","html-keyboard-response","244","880984","0.0-32.0-5.23","","","test","downarrow","1","2","TRUE","FALSE",""
"null","<div style=""font-size:60px;""> </div>","null","html-keyboard-response","245","881286","0.0-32.0-6.23","","","fixation_4","","","","","",""
"1425.9000000059605","arrows.png","37","image-keyboard-response","246","882713","0.0-32.0-7.23","","","test","downarrow","1","2","TRUE","FALSE","false"
"null","<p style=""color: red; font-size:300%;"">incorrect: $0</p>","null","html-keyboard-response","247","883965","0.0-32.0-8.23","","","","","","","","",""
"null","<div style=""font-size:60px;""> </div>","null","html-keyboard-response","248","884768","0.0-32.0-0.24","","","fixation_1","","","","","",""
"null","","null","image-keyboard-response","249","884773","0.0-32.0-1.24","","","test","downarrow","1","2","FALSE","FALSE",""
"null","<div style=""font-size:60px;""> </div>","null","html-keyboard-response","250","885074","0.0-32.0-2.24","","","fixation_2","","","","","",""
"null","img_2.bmp","null","image-keyboard-response","251","886075","0.0-32.0-3.24","","","img_on","","","","","",""
"null","<div style=""font-size:60px;""> </div>","null","html-keyboard-response","252","886376","0.0-32.0-4.24","","","fixation_3","","","","","",""
"null","","null","html-keyboard-response","253","886382","0.0-32.0-5.24","","","test","downarrow","1","2","FALSE","FALSE",""
"null","<div style=""font-size:60px;""> </div>","null","html-keyboard-response","254","886684","0.0-32.0-6.24","","","fixation_4","","","","","",""
"1435.699999988079","arrows.png","39","image-keyboard-response","255","888121","0.0-32.0-7.24","","","test","downarrow","1","2","FALSE","FALSE","false"
"null","<p style=""color: red; font-size:300%;"">incorrect: $0</p>","null","html-keyboard-response","256","889373","0.0-32.0-8.24","","","","","","","","",""
"null","<div style=""font-size:60px;""> </div>","null","html-keyboard-response","257","890924","0.0-32.0-0.25","","","fixation_1","","","","","",""
"null","","null","image-keyboard-response","258","890930","0.0-32.0-1.25","","","test","rightarrow","0","2","FALSE","FALSE",""
"null","<div style=""font-size:60px;""> </div>","null","html-keyboard-response","259","891231","0.0-32.0-2.25","","","fixation_2","","","","","",""
"null","img_1.bmp","null","image-keyboard-response","260","892239","0.0-32.0-3.25","","","img_on","","","","","",""
"null","<div style=""font-size:60px;""> </div>","null","html-keyboard-response","261","892541","0.0-32.0-4.25","","","fixation_3","","","","","",""
"null","","null","html-keyboard-response","262","892546","0.0-32.0-5.25","","","test","rightarrow","0","2","FALSE","FALSE",""
"null","<div style=""font-size:60px;""> </div>","null","html-keyboard-response","263","892847","0.0-32.0-6.25","","","fixation_4","","","","","",""
"2576.5999999940395","arrows.png","38","image-keyboard-response","264","895425","0.0-32.0-7.25","","","test","rightarrow","0","2","FALSE","FALSE","false"
"null","<p style=""color: red; font-size:300%;"">incorrect: $0</p>","null","html-keyboard-response","265","896677","0.0-32.0-8.25","","","","","","","","",""
"null","<div style=""font-size:60px;""> </div>","null","html-keyboard-response","266","897979","0.0-32.0-0.26","","","fixation_1","","","","","",""
"null","","null","image-keyboard-response","267","897985","0.0-32.0-1.26","","","test","uparrow","0","2","FALSE","FALSE",""
"null","<div style=""font-size:60px;""> </div>","null","html-keyboard-response","268","898286","0.0-32.0-2.26","","","fixation_2","","","","","",""
"null","img_4.bmp","null","image-keyboard-response","269","899287","0.0-32.0-3.26","","","img_on","","","","","",""
"null","<div style=""font-size:60px;""> </div>","null","html-keyboard-response","270","899589","0.0-32.0-4.26","","","fixation_3","","","","","",""
"null","","null","html-keyboard-response","271","899594","0.0-32.0-5.26","","","test","uparrow","0","2","FALSE","FALSE",""
"null","<div style=""font-size:60px;""> </div>","null","html-keyboard-response","272","899936","0.0-32.0-6.26","","","fixation_4","","","","","",""
"1824.3999999761581","arrows.png","37","image-keyboard-response","273","901762","0.0-32.0-7.26","","","test","uparrow","0","2","FALSE","FALSE","false"
"null","<p style=""color: red; font-size:300%;"">incorrect: $0</p>","null","html-keyboard-response","274","903013","0.0-32.0-8.26","","","","","","","","",""
"null","<div style=""font-size:60px;""> </div>","null","html-keyboard-response","275","904565","0.0-32.0-0.27","","","fixation_1","","","","","",""
"null","","null","image-keyboard-response","276","904571","0.0-32.0-1.27","","","test","leftarrow","1","2","FALSE","FALSE",""
"null","<div style=""font-size:60px;""> </div>","null","html-keyboard-response","277","904893","0.0-32.0-2.27","","","fixation_2","","","","","",""
"null","img_3.bmp","null","image-keyboard-response","278","905895","0.0-32.0-3.27","","","img_on","","","","","",""
"null","<div style=""font-size:60px;""> </div>","null","html-keyboard-response","279","906196","0.0-32.0-4.27","","","fixation_3","","","","","",""
"null","","null","html-keyboard-response","280","906201","0.0-32.0-5.27","","","test","leftarrow","1","2","FALSE","FALSE",""
"null","<div style=""font-size:60px;""> </div>","null","html-keyboard-response","281","906502","0.0-32.0-6.27","","","fixation_4","","","","","",""
"1400.5999999940395","arrows.png","39","image-keyboard-response","282","907904","0.0-32.0-7.27","","","test","leftarrow","1","2","FALSE","FALSE","false"
"null","<p style=""color: red; font-size:300%;"">incorrect: $0</p>","null","html-keyboard-response","283","909157","0.0-32.0-8.27","","","","","","","","",""
"null","<div style=""font-size:60px;""> </div>","null","html-keyboard-response","284","910210","0.0-32.0-0.28","","","fixation_1","","","","","",""
"null","","null","image-keyboard-response","285","910216","0.0-32.0-1.28","","","test","uparrow","0","2","FALSE","FALSE",""
"null","<div style=""font-size:60px;""> </div>","null","html-keyboard-response","286","910517","0.0-32.0-2.28","","","fixation_2","","","","","",""
"null","img_4.bmp","null","image-keyboard-response","287","911519","0.0-32.0-3.28","","","img_on","","","","","",""
"null","<div style=""font-size:60px;""> </div>","null","html-keyboard-response","288","911820","0.0-32.0-4.28","","","fixation_3","","","","","",""
"null","","null","html-keyboard-response","289","911825","0.0-32.0-5.28","","","test","uparrow","0","2","FALSE","FALSE",""
"null","<div style=""font-size:60px;""> </div>","null","html-keyboard-response","290","912126","0.0-32.0-6.28","","","fixation_4","","","","","",""
"1321.5999999940395","arrows.png","37","image-keyboard-response","291","913449","0.0-32.0-7.28","","","test","uparrow","0","2","FALSE","FALSE","false"
"null","<p style=""color: red; font-size:300%;"">incorrect: $0</p>","null","html-keyboard-response","292","914703","0.0-32.0-8.28","","","","","","","","",""
"null","<div style=""font-size:60px;""> </div>","null","html-keyboard-response","293","915755","0.0-32.0-0.29","","","fixation_1","","","","","",""
"null","","null","image-keyboard-response","294","915760","0.0-32.0-1.29","","","test","downarrow","1","2","FALSE","FALSE",""
"null","<div style=""font-size:60px;""> </div>","null","html-keyboard-response","295","916061","0.0-32.0-2.29","","","fixation_2","","","","","",""
"null","img_2.bmp","null","image-keyboard-response","296","917062","0.0-32.0-3.29","","","img_on","","","","","",""
"null","<div style=""font-size:60px;""> </div>","null","html-keyboard-response","297","917363","0.0-32.0-4.29","","","fixation_3","","","","","",""
"null","","null","html-keyboard-response","298","917369","0.0-32.0-5.29","","","test","downarrow","1","2","FALSE","FALSE",""
"null","<div style=""font-size:60px;""> </div>","null","html-keyboard-response","299","917677","0.0-32.0-6.29","","","fixation_4","","","","","",""
"729.5","arrows.png","38","image-keyboard-response","300","918408","0.0-32.0-7.29","","","test","downarrow","1","2","FALSE","FALSE","false"
"null","<p style=""color: red; font-size:300%;"">incorrect: $0</p>","null","html-keyboard-response","301","919661","0.0-32.0-8.29","","","","","","","","",""
"null","<div style=""font-size:60px;""> </div>","null","html-keyboard-response","302","920215","0.0-32.0-0.30","","","fixation_1","","","","","",""
"null","","null","image-keyboard-response","303","920220","0.0-32.0-1.30","","","test","rightarrow","0","2","FALSE","FALSE",""
"null","<div style=""font-size:60px;""> </div>","null","html-keyboard-response","304","920522","0.0-32.0-2.30","","","fixation_2","","","","","",""
"null","img_1.bmp","null","image-keyboard-response","305","921523","0.0-32.0-3.30","","","img_on","","","","","",""
"null","<div style=""font-size:60px;""> </div>","null","html-keyboard-response","306","921825","0.0-32.0-4.30","","","fixation_3","","","","","",""
"null","","null","html-keyboard-response","307","921830","0.0-32.0-5.30","","","test","rightarrow","0","2","FALSE","FALSE",""
"null","<div style=""font-size:60px;""> </div>","null","html-keyboard-response","308","922131","0.0-32.0-6.30","","","fixation_4","","","","","",""
"661.0999999940395","arrows.png","40","image-keyboard-response","309","922793","0.0-32.0-7.30","","","test","rightarrow","0","2","FALSE","FALSE","false"
"null","<p style=""color: red; font-size:300%;"">incorrect: $0</p>","null","html-keyboard-response","310","924132","0.0-32.0-8.30","","","","","","","","",""
"null","<div style=""font-size:60px;""> </div>","null","html-keyboard-response","311","925184","0.0-32.0-0.31","","","fixation_1","","","","","",""
"null","","null","image-keyboard-response","312","925191","0.0-32.0-1.31","","","test","leftarrow","1","2","FALSE","FALSE",""
"null","<div style=""font-size:60px;""> </div>","null","html-keyboard-response","313","925493","0.0-32.0-2.31","","","fixation_2","","","","","",""
"null","img_3.bmp","null","image-keyboard-response","314","926496","0.0-32.0-3.31","","","img_on","","","","","",""
"null","<div style=""font-size:60px;""> </div>","null","html-keyboard-response","315","926797","0.0-32.0-4.31","","","fixation_3","","","","","",""
"null","","null","html-keyboard-response","316","926803","0.0-32.0-5.31","","","test","leftarrow","1","2","FALSE","FALSE",""
"null","<div style=""font-size:60px;""> </div>","null","html-keyboard-response","317","927104","0.0-32.0-6.31","","","fixation_4","","","","","",""
"334.39999997615814","arrows.png","37","image-keyboard-response","318","927440","0.0-32.0-7.31","","","test","leftarrow","1","2","FALSE","FALSE","true"
"null","<p style=""color: green; font-size:300%;"">correct: $7.50</p>","null","html-keyboard-response","319","928692","0.0-32.0-8.31","","","","","","","","",""
"null","<div style=""font-size:60px;""> </div>","null","html-keyboard-response","320","929765","0.0-32.0-0.32","","","fixation_1","","","","","",""
"null","","null","image-keyboard-response","321","929770","0.0-32.0-1.32","","","test","rightarrow","0","2","FALSE","FALSE",""
"null","<div style=""font-size:60px;""> </div>","null","html-keyboard-response","322","930071","0.0-32.0-2.32","","","fixation_2","","","","","",""
"null","img_1.bmp","null","image-keyboard-response","323","931073","0.0-32.0-3.32","","","img_on","","","","","",""
"null","<div style=""font-size:60px;""> </div>","null","html-keyboard-response","324","931374","0.0-32.0-4.32","","","fixation_3","","","","","",""
"null","","null","html-keyboard-response","325","931380","0.0-32.0-5.32","","","test","rightarrow","0","2","FALSE","FALSE",""
"null","<div style=""font-size:60px;""> </div>","null","html-keyboard-response","326","931681","0.0-32.0-6.32","","","fixation_4","","","","","",""
"3534.5","arrows.png","39","image-keyboard-response","327","935216","0.0-32.0-7.32","","","test","rightarrow","0","2","FALSE","FALSE","true"
"null","<p style=""color: green; font-size:300%;"">correct: $2.50</p>","null","html-keyboard-response","328","936469","0.0-32.0-8.32","","","","","","","","",""
"null","<div style=""font-size:60px;""> </div>","null","html-keyboard-response","329","937271","0.0-32.0-0.33","","","fixation_1","","","","","",""
"null","","null","image-keyboard-response","330","937277","0.0-32.0-1.33","","","test","uparrow","0","2","FALSE","FALSE",""
"null","<div style=""font-size:60px;""> </div>","null","html-keyboard-response","331","937579","0.0-32.0-2.33","","","fixation_2","","","","","",""
"null","img_4.bmp","null","image-keyboard-response","332","938598","0.0-32.0-3.33","","","img_on","","","","","",""
"null","<div style=""font-size:60px;""> </div>","null","html-keyboard-response","333","938898","0.0-32.0-4.33","","","fixation_3","","","","","",""
"null","","null","html-keyboard-response","334","938903","0.0-32.0-5.33","","","test","uparrow","0","2","FALSE","FALSE",""
"null","<div style=""font-size:60px;""> </div>","null","html-keyboard-response","335","939205","0.0-32.0-6.33","","","fixation_4","","","","","",""
"875.9000000059605","arrows.png","39","image-keyboard-response","336","940081","0.0-32.0-7.33","","","test","uparrow","0","2","FALSE","FALSE","false"
"null","<p style=""color: red; font-size:300%;"">incorrect: $0</p>","null","html-keyboard-response","337","941334","0.0-32.0-8.33","","","","","","","","",""
"null","<div style=""font-size:60px;""> </div>","null","html-keyboard-response","338","942136","0.0-32.0-0.34","","","fixation_1","","","","","",""
"null","","null","image-keyboard-response","339","942141","0.0-32.0-1.34","","","test","downarrow","1","2","FALSE","FALSE",""
"null","<div style=""font-size:60px;""> </div>","null","html-keyboard-response","340","942442","0.0-32.0-2.34","","","fixation_2","","","","","",""
"null","img_2.bmp","null","image-keyboard-response","341","943443","0.0-32.0-3.34","","","img_on","","","","","",""
"null","<div style=""font-size:60px;""> </div>","null","html-keyboard-response","342","943745","0.0-32.0-4.34","","","fixation_3","","","","","",""
"null","","null","html-keyboard-response","343","943750","0.0-32.0-5.34","","","test","downarrow","1","2","FALSE","FALSE",""
"null","<div style=""font-size:60px;""> </div>","null","html-keyboard-response","344","944052","0.0-32.0-6.34","","","fixation_4","","","","","",""
"1531.699999988079","arrows.png","39","image-keyboard-response","345","945584","0.0-32.0-7.34","","","test","downarrow","1","2","FALSE","FALSE","false"
"null","<p style=""color: red; font-size:300%;"">incorrect: $0</p>","null","html-keyboard-response","346","946836","0.0-32.0-8.34","","","","","","","","",""
"null","<div style=""font-size:60px;""> </div>","null","html-keyboard-response","347","948389","0.0-32.0-0.35","","","fixation_1","","","","","",""
"null","","null","image-keyboard-response","348","948395","0.0-32.0-1.35","","","test","leftarrow","1","2","FALSE","FALSE",""
"null","<div style=""font-size:60px;""> </div>","null","html-keyboard-response","349","948708","0.0-32.0-2.35","","","fixation_2","","","","","",""
"null","img_3.bmp","null","image-keyboard-response","350","949709","0.0-32.0-3.35","","","img_on","","","","","",""
"null","<div style=""font-size:60px;""> </div>","null","html-keyboard-response","351","950011","0.0-32.0-4.35","","","fixation_3","","","","","",""
"null","","null","html-keyboard-response","352","950016","0.0-32.0-5.35","","","test","leftarrow","1","2","FALSE","FALSE",""
"null","<div style=""font-size:60px;""> </div>","null","html-keyboard-response","353","950326","0.0-32.0-6.35","","","fixation_4","","","","","",""
"2018.300000011921","arrows.png","39","image-keyboard-response","354","952345","0.0-32.0-7.35","","","test","leftarrow","1","2","FALSE","FALSE","false"
"null","<p style=""color: red; font-size:300%;"">incorrect: $0</p>","null","html-keyboard-response","355","953597","0.0-32.0-8.35","","","","","","","","",""
"null","<div style=""font-size:60px;""> </div>","null","html-keyboard-response","356","954149","0.0-32.0-0.36","","","fixation_1","","","","","",""
"null","","null","image-keyboard-response","357","954155","0.0-32.0-1.36","","","test","rightarrow","0","2","FALSE","FALSE",""
"null","<div style=""font-size:60px;""> </div>","null","html-keyboard-response","358","954457","0.0-32.0-2.36","","","fixation_2","","","","","",""
"null","img_1.bmp","null","image-keyboard-response","359","955461","0.0-32.0-3.36","","","img_on","","","","","",""
"null","<div style=""font-size:60px;""> </div>","null","html-keyboard-response","360","955775","0.0-32.0-4.36","","","fixation_3","","","","","",""
"null","","null","html-keyboard-response","361","955780","0.0-32.0-5.36","","","test","rightarrow","0","2","FALSE","FALSE",""
"null","<div style=""font-size:60px;""> </div>","null","html-keyboard-response","362","956081","0.0-32.0-6.36","","","fixation_4","","","","","",""
"1766.5","arrows.png","38","image-keyboard-response","363","957848","0.0-32.0-7.36","","","test","rightarrow","0","2","FALSE","FALSE","false"
"null","<p style=""color: red; font-size:300%;"">incorrect: $0</p>","null","html-keyboard-response","364","959101","0.0-32.0-8.36","","","","","","","","",""
"null","<div style=""font-size:60px;""> </div>","null","html-keyboard-response","365","960653","0.0-32.0-0.37","","","fixation_1","","","","","",""
"null","switch_cue.png","null","image-keyboard-response","366","961663","0.0-32.0-1.37","","","test","downarrow","1","2","TRUE","TRUE",""
"null","<div style=""font-size:60px;""> </div>","null","html-keyboard-response","367","961968","0.0-32.0-2.37","","","fixation_2","","","","","",""
"null","img_2.bmp","null","image-keyboard-response","368","962970","0.0-32.0-3.37","","","img_on","","","","","",""
"null","<div style=""font-size:60px;""> </div>","null","html-keyboard-response","369","963270","0.0-32.0-4.37","","","fixation_3","","","","","",""
"null","<img src=""CC2.png"" width=200 height=200/>","null","html-keyboard-response","370","964272","0.0-32.0-5.37","","","test","downarrow","1","2","TRUE","TRUE",""
"null","<div style=""font-size:60px;""> </div>","null","html-keyboard-response","371","964595","0.0-32.0-6.37","","","fixation_4","","","","","",""
"324.5","arrows.png","39","image-keyboard-response","372","964920","0.0-32.0-7.37","","","test","downarrow","1","2","TRUE","TRUE","false"
"null","<p style=""color: red; font-size:300%;"">incorrect: $0</p>","null","html-keyboard-response","373","966172","0.0-32.0-8.37","","","","","","","","",""
"null","<div style=""font-size:60px;""> </div>","null","html-keyboard-response","374","967728","0.0-32.0-0.38","","","fixation_1","","","","","",""
"null","switch_cue.png","null","image-keyboard-response","375","968730","0.0-32.0-1.38","","","test","leftarrow","1","2","TRUE","TRUE",""
"null","<div style=""font-size:60px;""> </div>","null","html-keyboard-response","376","969031","0.0-32.0-2.38","","","fixation_2","","","","","",""
"null","img_3.bmp","null","image-keyboard-response","377","970032","0.0-32.0-3.38","","","img_on","","","","","",""
"null","<div style=""font-size:60px;""> </div>","null","html-keyboard-response","378","970334","0.0-32.0-4.38","","","fixation_3","","","","","",""
"null","<img src=""CC2.png"" width=200 height=200/>","null","html-keyboard-response","379","971336","0.0-32.0-5.38","","","test","leftarrow","1","2","TRUE","TRUE",""
"null","<div style=""font-size:60px;""> </div>","null","html-keyboard-response","380","971637","0.0-32.0-6.38","","","fixation_4","","","","","",""
"null","arrows.png","null","image-keyboard-response","381","978651","0.0-32.0-7.38","","","test","leftarrow","1","2","TRUE","TRUE","false"
"null","<p style=""color: red; font-size:300%;"">incorrect: $0</p>","null","html-keyboard-response","382","979904","0.0-32.0-8.38","","","","","","","","",""
"null","<div style=""font-size:60px;""> </div>","null","html-keyboard-response","383","980709","0.0-32.0-0.39","","","fixation_1","","","","","",""
"null","switch_cue.png","null","image-keyboard-response","384","981711","0.0-32.0-1.39","","","test","uparrow","0","2","TRUE","TRUE",""
"null","<div style=""font-size:60px;""> </div>","null","html-keyboard-response","385","982012","0.0-32.0-2.39","","","fixation_2","","","","","",""
"null","img_4.bmp","null","image-keyboard-response","386","983013","0.0-32.0-3.39","","","img_on","","","","","",""
"null","<div style=""font-size:60px;""> </div>","null","html-keyboard-response","387","983314","0.0-32.0-4.39","","","fixation_3","","","","","",""
"null","<img src=""CC2.png"" width=200 height=200/>","null","html-keyboard-response","388","984315","0.0-32.0-5.39","","","test","uparrow","0","2","TRUE","TRUE",""
"null","<div style=""font-size:60px;""> </div>","null","html-keyboard-response","389","984616","0.0-32.0-6.39","","","fixation_4","","","","","",""
"54.599999994039536","arrows.png","38","image-keyboard-response","390","984672","0.0-32.0-7.39","","","test","uparrow","0","2","TRUE","TRUE","true"
"null","<p style=""color: green; font-size:300%;"">correct: $2.50</p>","null","html-keyboard-response","391","985928","0.0-32.0-8.39","","","","","","","","",""
"null","<div style=""font-size:60px;""> </div>","null","html-keyboard-response","392","987230","0.0-32.0-0.40","","","fixation_1","","","","","",""
"null","switch_cue.png","null","image-keyboard-response","393","988231","0.0-32.0-1.40","","","test","rightarrow","1","1","TRUE","TRUE",""
"null","<div style=""font-size:60px;""> </div>","null","html-keyboard-response","394","988532","0.0-32.0-2.40","","","fixation_2","","","","","",""
"null","img_2.bmp","null","image-keyboard-response","395","989533","0.0-32.0-3.40","","","img_on","","","","","",""
"null","<div style=""font-size:60px;""> </div>","null","html-keyboard-response","396","989835","0.0-32.0-4.40","","","fixation_3","","","","","",""
"null","<img src=""CC1.png"" width=200 height=200/>","null","html-keyboard-response","397","990839","0.0-32.0-5.40","","","test","rightarrow","1","1","TRUE","TRUE",""
"null","<div style=""font-size:60px;""> </div>","null","html-keyboard-response","398","991141","0.0-32.0-6.40","","","fixation_4","","","","","",""
"409.7999999821186","arrows.png","39","image-keyboard-response","399","991552","0.0-32.0-7.40","","","test","rightarrow","1","1","TRUE","TRUE","true"
"null","<p style=""color: green; font-size:300%;"">correct: $7.50</p>","null","html-keyboard-response","400","992803","0.0-32.0-8.40","","","","","","","","",""
"null","<div style=""font-size:60px;""> </div>","null","html-keyboard-response","401","994105","0.0-32.0-0.41","","","fixation_1","","","","","",""
"null","","null","image-keyboard-response","402","994110","0.0-32.0-1.41","","","test","uparrow","1","1","TRUE","FALSE",""
"null","<div style=""font-size:60px;""> </div>","null","html-keyboard-response","403","994413","0.0-32.0-2.41","","","fixation_2","","","","","",""
"null","img_1.bmp","null","image-keyboard-response","404","995418","0.0-32.0-3.41","","","img_on","","","","","",""
"null","<div style=""font-size:60px;""> </div>","null","html-keyboard-response","405","995719","0.0-32.0-4.41","","","fixation_3","","","","","",""
"null","<img src=""CC1.png"" width=200 height=200/>","null","html-keyboard-response","406","996721","0.0-32.0-5.41","","","test","uparrow","1","1","TRUE","FALSE",""
"null","<div style=""font-size:60px;""> </div>","null","html-keyboard-response","407","997041","0.0-32.0-6.41","","","fixation_4","","","","","",""
"717.8000000119209","arrows.png","38","image-keyboard-response","408","997760","0.0-32.0-7.41","","","test","uparrow","1","1","TRUE","FALSE","true"
"null","<p style=""color: green; font-size:300%;"">correct: $7.50</p>","null","html-keyboard-response","409","999013","0.0-32.0-8.41","","","","","","","","",""
"null","<div style=""font-size:60px;""> </div>","null","html-keyboard-response","410","999565","0.0-32.0-0.42","","","fixation_1","","","","","",""
"null","","null","image-keyboard-response","411","999570","0.0-32.0-1.42","","","test","leftarrow","0","1","TRUE","FALSE",""
"null","<div style=""font-size:60px;""> </div>","null","html-keyboard-response","412","999871","0.0-32.0-2.42","","","fixation_2","","","","","",""
"null","img_4.bmp","null","image-keyboard-response","413","1000873","0.0-32.0-3.42","","","img_on","","","","","",""
"null","<div style=""font-size:60px;""> </div>","null","html-keyboard-response","414","1001174","0.0-32.0-4.42","","","fixation_3","","","","","",""
"null","<img src=""CC1.png"" width=200 height=200/>","null","html-keyboard-response","415","1002175","0.0-32.0-5.42","","","test","leftarrow","0","1","TRUE","FALSE",""
"null","<div style=""font-size:60px;""> </div>","null","html-keyboard-response","416","1002477","0.0-32.0-6.42","","","fixation_4","","","","","",""
"672.3999999761581","arrows.png","39","image-keyboard-response","417","1003150","0.0-32.0-7.42","","","test","leftarrow","0","1","TRUE","FALSE","false"
"null","<p style=""color: red; font-size:300%;"">incorrect: $0</p>","null","html-keyboard-response","418","1004401","0.0-32.0-8.42","","","","","","","","",""
"null","<div style=""font-size:60px;""> </div>","null","html-keyboard-response","419","1005705","0.0-32.0-0.43","","","fixation_1","","","","","",""
"null","","null","image-keyboard-response","420","1005711","0.0-32.0-1.43","","","test","downarrow","0","1","TRUE","FALSE",""
"null","<div style=""font-size:60px;""> </div>","null","html-keyboard-response","421","1006054","0.0-32.0-2.43","","","fixation_2","","","","","",""
"null","img_3.bmp","null","image-keyboard-response","422","1007055","0.0-32.0-3.43","","","img_on","","","","","",""
"null","<div style=""font-size:60px;""> </div>","null","html-keyboard-response","423","1007356","0.0-32.0-4.43","","","fixation_3","","","","","",""
"null","<img src=""CC1.png"" width=200 height=200/>","null","html-keyboard-response","424","1008357","0.0-32.0-5.43","","","test","downarrow","0","1","TRUE","FALSE",""
"null","<div style=""font-size:60px;""> </div>","null","html-keyboard-response","425","1008658","0.0-32.0-6.43","","","fixation_4","","","","","",""
"1972.0999999940395","arrows.png","38","image-keyboard-response","426","1010631","0.0-32.0-7.43","","","test","downarrow","0","1","TRUE","FALSE","false"
"null","<p style=""color: red; font-size:300%;"">incorrect: $0</p>","null","html-keyboard-response","427","1011884","0.0-32.0-8.43","","","","","","","","",""
"null","<div style=""font-size:60px;""> </div>","null","html-keyboard-response","428","1013196","0.0-32.0-0.44","","","fixation_1","","","","","",""
"null","","null","image-keyboard-response","429","1013203","0.0-32.0-1.44","","","test","downarrow","0","1","FALSE","FALSE",""
"null","<div style=""font-size:60px;""> </div>","null","html-keyboard-response","430","1013506","0.0-32.0-2.44","","","fixation_2","","","","","",""
"null","img_3.bmp","null","image-keyboard-response","431","1014508","0.0-32.0-3.44","","","img_on","","","","","",""
"null","<div style=""font-size:60px;""> </div>","null","html-keyboard-response","432","1014811","0.0-32.0-4.44","","","fixation_3","","","","","",""
"null","","null","html-keyboard-response","433","1014817","0.0-32.0-5.44","","","test","downarrow","0","1","FALSE","FALSE",""
"null","<div style=""font-size:60px;""> </div>","null","html-keyboard-response","434","1015121","0.0-32.0-6.44","","","fixation_4","","","","","",""
"1173.2000000178814","arrows.png","40","image-keyboard-response","435","1016295","0.0-32.0-7.44","","","test","downarrow","0","1","FALSE","FALSE","true"
"null","<p style=""color: green; font-size:300%;"">correct: $2.50</p>","null","html-keyboard-response","436","1017547","0.0-32.0-8.44","","","","","","","","",""
"null","<div style=""font-size:60px;""> </div>","null","html-keyboard-response","437","1019100","0.0-32.0-0.45","","","fixation_1","","","","","",""
"null","","null","image-keyboard-response","438","1019106","0.0-32.0-1.45","","","test","leftarrow","0","1","FALSE","FALSE",""
"null","<div style=""font-size:60px;""> </div>","null","html-keyboard-response","439","1019407","0.0-32.0-2.45","","","fixation_2","","","","","",""
"null","img_4.bmp","null","image-keyboard-response","440","1020409","0.0-32.0-3.45","","","img_on","","","","","",""
"null","<div style=""font-size:60px;""> </div>","null","html-keyboard-response","441","1020711","0.0-32.0-4.45","","","fixation_3","","","","","",""
"null","","null","html-keyboard-response","442","1020717","0.0-32.0-5.45","","","test","leftarrow","0","1","FALSE","FALSE",""
"null","<div style=""font-size:60px;""> </div>","null","html-keyboard-response","443","1021019","0.0-32.0-6.45","","","fixation_4","","","","","",""
"1676.4000000059605","arrows.png","37","image-keyboard-response","444","1022696","0.0-32.0-7.45","","","test","leftarrow","0","1","FALSE","FALSE","true"
"null","<p style=""color: green; font-size:300%;"">correct: $2.50</p>","null","html-keyboard-response","445","1023950","0.0-32.0-8.45","","","","","","","","",""
"null","<div style=""font-size:60px;""> </div>","null","html-keyboard-response","446","1025252","0.0-32.0-0.46","","","fixation_1","","","","","",""
"null","","null","image-keyboard-response","447","1025258","0.0-32.0-1.46","","","test","rightarrow","1","1","FALSE","FALSE",""
"null","<div style=""font-size:60px;""> </div>","null","html-keyboard-response","448","1025559","0.0-32.0-2.46","","","fixation_2","","","","","",""
"null","img_2.bmp","null","image-keyboard-response","449","1026561","0.0-32.0-3.46","","","img_on","","","","","",""
"null","<div style=""font-size:60px;""> </div>","null","html-keyboard-response","450","1026863","0.0-32.0-4.46","","","fixation_3","","","","","",""
"null","","null","html-keyboard-response","451","1026868","0.0-32.0-5.46","","","test","rightarrow","1","1","FALSE","FALSE",""
"null","<div style=""font-size:60px;""> </div>","null","html-keyboard-response","452","1027169","0.0-32.0-6.46","","","fixation_4","","","","","",""
"1893.699999988079","arrows.png","39","image-keyboard-response","453","1029063","0.0-32.0-7.46","","","test","rightarrow","1","1","FALSE","FALSE","true"
"null","<p style=""color: green; font-size:300%;"">correct: $7.50</p>","null","html-keyboard-response","454","1030317","0.0-32.0-8.46","","","","","","","","",""
"null","<div style=""font-size:60px;""> </div>","null","html-keyboard-response","455","1031620","0.0-32.0-0.47","","","fixation_1","","","","","",""
"null","","null","image-keyboard-response","456","1031626","0.0-32.0-1.47","","","test","uparrow","1","1","FALSE","FALSE",""
"null","<div style=""font-size:60px;""> </div>","null","html-keyboard-response","457","1031927","0.0-32.0-2.47","","","fixation_2","","","","","",""
"null","img_1.bmp","null","image-keyboard-response","458","1032929","0.0-32.0-3.47","","","img_on","","","","","",""
"null","<div style=""font-size:60px;""> </div>","null","html-keyboard-response","459","1033230","0.0-32.0-4.47","","","fixation_3","","","","","",""
"null","","null","html-keyboard-response","460","1033235","0.0-32.0-5.47","","","test","uparrow","1","1","FALSE","FALSE",""
"null","<div style=""font-size:60px;""> </div>","null","html-keyboard-response","461","1033536","0.0-32.0-6.47","","","fixation_4","","","","","",""
"2438.699999988079","arrows.png","37","image-keyboard-response","462","1035976","0.0-32.0-7.47","","","test","uparrow","1","1","FALSE","FALSE","false"
"null","<p style=""color: red; font-size:300%;"">incorrect: $0</p>","null","html-keyboard-response","463","1037228","0.0-32.0-8.47","","","","","","","","",""
"null","<div style=""font-size:60px;""> </div>","null","html-keyboard-response","464","1038031","0.0-32.0-0.48","","","fixation_1","","","","","",""
"null","","null","image-keyboard-response","465","1038037","0.0-32.0-1.48","","","test","uparrow","1","1","FALSE","FALSE",""
"null","<div style=""font-size:60px;""> </div>","null","html-keyboard-response","466","1038338","0.0-32.0-2.48","","","fixation_2","","","","","",""
"null","img_1.bmp","null","image-keyboard-response","467","1039341","0.0-32.0-3.48","","","img_on","","","","","",""
"null","<div style=""font-size:60px;""> </div>","null","html-keyboard-response","468","1039643","0.0-32.0-4.48","","","fixation_3","","","","","",""
"null","","null","html-keyboard-response","469","1039648","0.0-32.0-5.48","","","test","uparrow","1","1","FALSE","FALSE",""
"null","<div style=""font-size:60px;""> </div>","null","html-keyboard-response","470","1039949","0.0-32.0-6.48","","","fixation_4","","","","","",""
"1057.300000011921","arrows.png","38","image-keyboard-response","471","1041008","0.0-32.0-7.48","","","test","uparrow","1","1","FALSE","FALSE","true"
"null","<p style=""color: green; font-size:300%;"">correct: $7.50</p>","null","html-keyboard-response","472","1042259","0.0-32.0-8.48","","","","","","","","",""
"null","<div style=""font-size:60px;""> </div>","null","html-keyboard-response","473","1042821","0.0-32.0-0.49","","","fixation_1","","","","","",""
"null","","null","image-keyboard-response","474","1042827","0.0-32.0-1.49","","","test","downarrow","0","1","FALSE","FALSE",""
"null","<div style=""font-size:60px;""> </div>","null","html-keyboard-response","475","1043129","0.0-32.0-2.49","","","fixation_2","","","","","",""
"null","img_3.bmp","null","image-keyboard-response","476","1044130","0.0-32.0-3.49","","","img_on","","","","","",""
"null","<div style=""font-size:60px;""> </div>","null","html-keyboard-response","477","1044431","0.0-32.0-4.49","","","fixation_3","","","","","",""
"null","","null","html-keyboard-response","478","1044436","0.0-32.0-5.49","","","test","downarrow","0","1","FALSE","FALSE",""
"null","<div style=""font-size:60px;""> </div>","null","html-keyboard-response","479","1044737","0.0-32.0-6.49","","","fixation_4","","","","","",""
"1357.4000000059605","arrows.png","39","image-keyboard-response","480","1046095","0.0-32.0-7.49","","","test","downarrow","0","1","FALSE","FALSE","false"
"null","<p style=""color: red; font-size:300%;"">incorrect: $0</p>","null","html-keyboard-response","481","1047348","0.0-32.0-8.49","","","","","","","","",""
"null","<div style=""font-size:60px;""> </div>","null","html-keyboard-response","482","1048651","0.0-32.0-0.50","","","fixation_1","","","","","",""
"null","","null","image-keyboard-response","483","1048657","0.0-32.0-1.50","","","test","leftarrow","0","1","FALSE","FALSE",""
"null","<div style=""font-size:60px;""> </div>","null","html-keyboard-response","484","1048958","0.0-32.0-2.50","","","fixation_2","","","","","",""
"null","img_4.bmp","null","image-keyboard-response","485","1049961","0.0-32.0-3.50","","","img_on","","","","","",""
"null","<div style=""font-size:60px;""> </div>","null","html-keyboard-response","486","1050278","0.0-32.0-4.50","","","fixation_3","","","","","",""
"null","","null","html-keyboard-response","487","1050284","0.0-32.0-5.50","","","test","leftarrow","0","1","FALSE","FALSE",""
"null","<div style=""font-size:60px;""> </div>","null","html-keyboard-response","488","1050585","0.0-32.0-6.50","","","fixation_4","","","","","",""
"661","arrows.png","37","image-keyboard-response","489","1051247","0.0-32.0-7.50","","","test","leftarrow","0","1","FALSE","FALSE","true"
"null","<p style=""color: green; font-size:300%;"">correct: $2.50</p>","null","html-keyboard-response","490","1052500","0.0-32.0-8.50","","","","","","","","",""
"null","<div style=""font-size:60px;""> </div>","null","html-keyboard-response","491","1053554","0.0-32.0-0.51","","","fixation_1","","","","","",""
"null","","null","image-keyboard-response","492","1053559","0.0-32.0-1.51","","","test","rightarrow","1","1","FALSE","FALSE",""
"null","<div style=""font-size:60px;""> </div>","null","html-keyboard-response","493","1053860","0.0-32.0-2.51","","","fixation_2","","","","","",""
"null","img_2.bmp","null","image-keyboard-response","494","1054862","0.0-32.0-3.51","","","img_on","","","","","",""
"null","<div style=""font-size:60px;""> </div>","null","html-keyboard-response","495","1055164","0.0-32.0-4.51","","","fixation_3","","","","","",""
"null","","null","html-keyboard-response","496","1055169","0.0-32.0-5.51","","","test","rightarrow","1","1","FALSE","FALSE",""
"null","<div style=""font-size:60px;""> </div>","null","html-keyboard-response","497","1055489","0.0-32.0-6.51","","","fixation_4","","","","","",""
"2357.199999988079","arrows.png","39","image-keyboard-response","498","1057848","0.0-32.0-7.51","","","test","rightarrow","1","1","FALSE","FALSE","true"
"null","<p style=""color: green; font-size:300%;"">correct: $7.50</p>","null","html-keyboard-response","499","1059100","0.0-32.0-8.51","","","","","","","","",""
"null","<div style=""font-size:60px;""> </div>","null","html-keyboard-response","500","1059661","0.0-32.0-0.52","","","fixation_1","","","","","",""
"null","switch_cue.png","null","image-keyboard-response","501","1060664","0.0-32.0-1.52","","","test","leftarrow","1","2","TRUE","TRUE",""
"null","<div style=""font-size:60px;""> </div>","null","html-keyboard-response","502","1060966","0.0-32.0-2.52","","","fixation_2","","","","","",""
"null","img_3.bmp","null","image-keyboard-response","503","1061967","0.0-32.0-3.52","","","img_on","","","","","",""
"null","<div style=""font-size:60px;""> </div>","null","html-keyboard-response","504","1062271","0.0-32.0-4.52","","","fixation_3","","","","","",""
"null","<img src=""CC2.png"" width=200 height=200/>","null","html-keyboard-response","505","1063273","0.0-32.0-5.52","","","test","leftarrow","1","2","TRUE","TRUE",""
"null","<div style=""font-size:60px;""> </div>","null","html-keyboard-response","506","1063575","0.0-32.0-6.52","","","fixation_4","","","","","",""
"863.0999999940395","arrows.png","39","image-keyboard-response","507","1064439","0.0-32.0-7.52","","","test","leftarrow","1","2","TRUE","TRUE","false"
"null","<p style=""color: red; font-size:300%;"">incorrect: $0</p>","null","html-keyboard-response","508","1065691","0.0-32.0-8.52","","","","","","","","",""
"null","<div style=""font-size:60px;""> </div>","null","html-keyboard-response","509","1066995","0.0-32.0-0.53","","","fixation_1","","","","","",""
"null","","null","image-keyboard-response","510","1067001","0.0-32.0-1.53","","","test","downarrow","1","2","TRUE","FALSE",""
"null","<div style=""font-size:60px;""> </div>","null","html-keyboard-response","511","1067302","0.0-32.0-2.53","","","fixation_2","","","","","",""
"null","img_2.bmp","null","image-keyboard-response","512","1068304","0.0-32.0-3.53","","","img_on","","","","","",""
"null","<div style=""font-size:60px;""> </div>","null","html-keyboard-response","513","1068605","0.0-32.0-4.53","","","fixation_3","","","","","",""
"null","<img src=""CC2.png"" width=200 height=200/>","null","html-keyboard-response","514","1069606","0.0-32.0-5.53","","","test","downarrow","1","2","TRUE","FALSE",""
"null","<div style=""font-size:60px;""> </div>","null","html-keyboard-response","515","1069907","0.0-32.0-6.53","","","fixation_4","","","","","",""
"579.1999999880791","arrows.png","39","image-keyboard-response","516","1070487","0.0-32.0-7.53","","","test","downarrow","1","2","TRUE","FALSE","false"
"null","<p style=""color: red; font-size:300%;"">incorrect: $0</p>","null","html-keyboard-response","517","1071738","0.0-32.0-8.53","","","","","","","","",""
"null","<div style=""font-size:60px;""> </div>","null","html-keyboard-response","518","1072791","0.0-32.0-0.54","","","fixation_1","","","","","",""
"null","","null","image-keyboard-response","519","1072797","0.0-32.0-1.54","","","test","rightarrow","0","2","TRUE","FALSE",""
"null","<div style=""font-size:60px;""> </div>","null","html-keyboard-response","520","1073098","0.0-32.0-2.54","","","fixation_2","","","","","",""
"null","img_1.bmp","null","image-keyboard-response","521","1074099","0.0-32.0-3.54","","","img_on","","","","","",""
"null","<div style=""font-size:60px;""> </div>","null","html-keyboard-response","522","1074401","0.0-32.0-4.54","","","fixation_3","","","","","",""
"null","<img src=""CC2.png"" width=200 height=200/>","null","html-keyboard-response","523","1075402","0.0-32.0-5.54","","","test","rightarrow","0","2","TRUE","FALSE",""
"null","<div style=""font-size:60px;""> </div>","null","html-keyboard-response","524","1075705","0.0-32.0-6.54","","","fixation_4","","","","","",""
"549.5","arrows.png","37","image-keyboard-response","525","1076255","0.0-32.0-7.54","","","test","rightarrow","0","2","TRUE","FALSE","false"
"null","<p style=""color: red; font-size:300%;"">incorrect: $0</p>","null","html-keyboard-response","526","1077506","0.0-32.0-8.54","","","","","","","","",""
"null","<div style=""font-size:60px;""> </div>","null","html-keyboard-response","527","1078322","0.0-32.0-0.55","","","fixation_1","","","","","",""
"null","","null","image-keyboard-response","528","1078328","0.0-32.0-1.55","","","test","uparrow","0","2","TRUE","FALSE",""
"null","<div style=""font-size:60px;""> </div>","null","html-keyboard-response","529","1078629","0.0-32.0-2.55","","","fixation_2","","","","","",""
"null","img_4.bmp","null","image-keyboard-response","530","1079631","0.0-32.0-3.55","","","img_on","","","","","",""
"null","<div style=""font-size:60px;""> </div>","null","html-keyboard-response","531","1079932","0.0-32.0-4.55","","","fixation_3","","","","","",""
"null","<img src=""CC2.png"" width=200 height=200/>","null","html-keyboard-response","532","1080934","0.0-32.0-5.55","","","test","uparrow","0","2","TRUE","FALSE",""
"null","<div style=""font-size:60px;""> </div>","null","html-keyboard-response","533","1081236","0.0-32.0-6.55","","","fixation_4","","","","","",""
"330.19999998807907","arrows.png","37","image-keyboard-response","534","1081567","0.0-32.0-7.55","","","test","uparrow","0","2","TRUE","FALSE","false"
"null","<p style=""color: red; font-size:300%;"">incorrect: $0</p>","null","html-keyboard-response","535","1082818","0.0-32.0-8.55","","","","","","","","",""
"null","<div style=""font-size:60px;""> </div>","null","html-keyboard-response","536","1084371","0.0-32.0-0.56","","","fixation_1","","","","","",""
"null","","null","image-keyboard-response","537","1084377","0.0-32.0-1.56","","","test","leftarrow","1","2","FALSE","FALSE",""
"null","<div style=""font-size:60px;""> </div>","null","html-keyboard-response","538","1084678","0.0-32.0-2.56","","","fixation_2","","","","","",""
"null","img_3.bmp","null","image-keyboard-response","539","1085679","0.0-32.0-3.56","","","img_on","","","","","",""
"null","<div style=""font-size:60px;""> </div>","null","html-keyboard-response","540","1085981","0.0-32.0-4.56","","","fixation_3","","","","","",""
"null","","null","html-keyboard-response","541","1085986","0.0-32.0-5.56","","","test","leftarrow","1","2","FALSE","FALSE",""
"null","<div style=""font-size:60px;""> </div>","null","html-keyboard-response","542","1086287","0.0-32.0-6.56","","","fixation_4","","","","","",""
"1550.4000000059605","arrows.png","39","image-keyboard-response","543","1087839","0.0-32.0-7.56","","","test","leftarrow","1","2","FALSE","FALSE","false"
"null","<p style=""color: red; font-size:300%;"">incorrect: $0</p>","null","html-keyboard-response","544","1089091","0.0-32.0-8.56","","","","","","","","",""
"null","<div style=""font-size:60px;""> </div>","null","html-keyboard-response","545","1089643","0.0-32.0-0.57","","","fixation_1","","","","","",""
"null","","null","image-keyboard-response","546","1089648","0.0-32.0-1.57","","","test","uparrow","0","2","FALSE","FALSE",""
"null","<div style=""font-size:60px;""> </div>","null","html-keyboard-response","547","1089951","0.0-32.0-2.57","","","fixation_2","","","","","",""
"null","img_4.bmp","null","image-keyboard-response","548","1090953","0.0-32.0-3.57","","","img_on","","","","","",""
"null","<div style=""font-size:60px;""> </div>","null","html-keyboard-response","549","1091254","0.0-32.0-4.57","","","fixation_3","","","","","",""
"null","","null","html-keyboard-response","550","1091260","0.0-32.0-5.57","","","test","uparrow","0","2","FALSE","FALSE",""
"null","<div style=""font-size:60px;""> </div>","null","html-keyboard-response","551","1091579","0.0-32.0-6.57","","","fixation_4","","","","","",""
"3747.399999976158","arrows.png","37","image-keyboard-response","552","1095327","0.0-32.0-7.57","","","test","uparrow","0","2","FALSE","FALSE","false"
"null","<p style=""color: red; font-size:300%;"">incorrect: $0</p>","null","html-keyboard-response","553","1096580","0.0-32.0-8.57","","","","","","","","",""
"null","<div style=""font-size:60px;""> </div>","null","html-keyboard-response","554","1097137","0.0-32.0-0.58","","","fixation_1","","","","","",""
"null","","null","image-keyboard-response","555","1097143","0.0-32.0-1.58","","","test","downarrow","1","2","FALSE","FALSE",""
"null","<div style=""font-size:60px;""> </div>","null","html-keyboard-response","556","1097443","0.0-32.0-2.58","","","fixation_2","","","","","",""
"null","img_2.bmp","null","image-keyboard-response","557","1098444","0.0-32.0-3.58","","","img_on","","","","","",""
"null","<div style=""font-size:60px;""> </div>","null","html-keyboard-response","558","1098746","0.0-32.0-4.58","","","fixation_3","","","","","",""
"null","","null","html-keyboard-response","559","1098751","0.0-32.0-5.58","","","test","downarrow","1","2","FALSE","FALSE",""
"null","<div style=""font-size:60px;""> </div>","null","html-keyboard-response","560","1099052","0.0-32.0-6.58","","","fixation_4","","","","","",""
"1913.5","arrows.png","38","image-keyboard-response","561","1100967","0.0-32.0-7.58","","","test","downarrow","1","2","FALSE","FALSE","false"
"null","<p style=""color: red; font-size:300%;"">incorrect: $0</p>","null","html-keyboard-response","562","1102235","0.0-32.0-8.58","","","","","","","","",""
"null","<div style=""font-size:60px;""> </div>","null","html-keyboard-response","563","1103786","0.0-32.0-0.59","","","fixation_1","","","","","",""
"null","","null","image-keyboard-response","564","1103793","0.0-32.0-1.59","","","test","rightarrow","0","2","FALSE","FALSE",""
"null","<div style=""font-size:60px;""> </div>","null","html-keyboard-response","565","1104108","0.0-32.0-2.59","","","fixation_2","","","","","",""
"null","img_1.bmp","null","image-keyboard-response","566","1105110","0.0-32.0-3.59","","","img_on","","","","","",""
"null","<div style=""font-size:60px;""> </div>","null","html-keyboard-response","567","1105411","0.0-32.0-4.59","","","fixation_3","","","","","",""
"null","","null","html-keyboard-response","568","1105416","0.0-32.0-5.59","","","test","rightarrow","0","2","FALSE","FALSE",""
"null","<div style=""font-size:60px;""> </div>","null","html-keyboard-response","569","1105718","0.0-32.0-6.59","","","fixation_4","","","","","",""
"1808.699999988079","arrows.png","38","image-keyboard-response","570","1107528","0.0-32.0-7.59","","","test","rightarrow","0","2","FALSE","FALSE","false"
"null","<p style=""color: red; font-size:300%;"">incorrect: $0</p>","null","html-keyboard-response","571","1108806","0.0-32.0-8.59","","","","","","","","",""
"null","<div style=""font-size:60px;""> </div>","null","html-keyboard-response","572","1110360","0.0-32.0-0.60","","","fixation_1","","","","","",""
"null","","null","image-keyboard-response","573","1110366","0.0-32.0-1.60","","","test","leftarrow","1","2","FALSE","FALSE",""
"null","<div style=""font-size:60px;""> </div>","null","html-keyboard-response","574","1110666","0.0-32.0-2.60","","","fixation_2","","","","","",""
"null","img_3.bmp","null","image-keyboard-response","575","1111667","0.0-32.0-3.60","","","img_on","","","","","",""
"null","<div style=""font-size:60px;""> </div>","null","html-keyboard-response","576","1111969","0.0-32.0-4.60","","","fixation_3","","","","","",""
"null","","null","html-keyboard-response","577","1111975","0.0-32.0-5.60","","","test","leftarrow","1","2","FALSE","FALSE",""
"null","<div style=""font-size:60px;""> </div>","null","html-keyboard-response","578","1112284","0.0-32.0-6.60","","","fixation_4","","","","","",""
"1257","arrows.png","38","image-keyboard-response","579","1113542","0.0-32.0-7.60","","","test","leftarrow","1","2","FALSE","FALSE","false"
"null","<p style=""color: red; font-size:300%;"">incorrect: $0</p>","null","html-keyboard-response","580","1114795","0.0-32.0-8.60","","","","","","","","",""
"null","<div style=""font-size:60px;""> </div>","null","html-keyboard-response","581","1116348","0.0-32.0-0.61","","","fixation_1","","","","","",""
"null","","null","image-keyboard-response","582","1116355","0.0-32.0-1.61","","","test","downarrow","1","2","FALSE","FALSE",""
"null","<div style=""font-size:60px;""> </div>","null","html-keyboard-response","583","1116657","0.0-32.0-2.61","","","fixation_2","","","","","",""
"null","img_2.bmp","null","image-keyboard-response","584","1117658","0.0-32.0-3.61","","","img_on","","","","","",""
"null","<div style=""font-size:60px;""> </div>","null","html-keyboard-response","585","1117976","0.0-32.0-4.61","","","fixation_3","","","","","",""
"null","","null","html-keyboard-response","586","1117981","0.0-32.0-5.61","","","test","downarrow","1","2","FALSE","FALSE",""
"null","<div style=""font-size:60px;""> </div>","null","html-keyboard-response","587","1118282","0.0-32.0-6.61","","","fixation_4","","","","","",""
"963.5","arrows.png","37","image-keyboard-response","588","1119247","0.0-32.0-7.61","","","test","downarrow","1","2","FALSE","FALSE","false"
"null","<p style=""color: red; font-size:300%;"">incorrect: $0</p>","null","html-keyboard-response","589","1120500","0.0-32.0-8.61","","","","","","","","",""
"null","<div style=""font-size:60px;""> </div>","null","html-keyboard-response","590","1121307","0.0-32.0-0.62","","","fixation_1","","","","","",""
"null","","null","image-keyboard-response","591","1121312","0.0-32.0-1.62","","","test","uparrow","0","2","FALSE","FALSE",""
"null","<div style=""font-size:60px;""> </div>","null","html-keyboard-response","592","1121613","0.0-32.0-2.62","","","fixation_2","","","","","",""
"null","img_4.bmp","null","image-keyboard-response","593","1122614","0.0-32.0-3.62","","","img_on","","","","","",""
"null","<div style=""font-size:60px;""> </div>","null","html-keyboard-response","594","1122917","0.0-32.0-4.62","","","fixation_3","","","","","",""
"null","","null","html-keyboard-response","595","1122923","0.0-32.0-5.62","","","test","uparrow","0","2","FALSE","FALSE",""
"null","<div style=""font-size:60px;""> </div>","null","html-keyboard-response","596","1123224","0.0-32.0-6.62","","","fixation_4","","","","","",""
"597.7000000178814","arrows.png","37","image-keyboard-response","597","1123822","0.0-32.0-7.62","","","test","uparrow","0","2","FALSE","FALSE","false"
"null","<p style=""color: red; font-size:300%;"">incorrect: $0</p>","null","html-keyboard-response","598","1125078","0.0-32.0-8.62","","","","","","","","",""
"null","<div style=""font-size:60px;""> </div>","null","html-keyboard-response","599","1126130","0.0-32.0-0.63","","","fixation_1","","","","","",""
"null","switch_cue.png","null","image-keyboard-response","600","1127131","0.0-32.0-1.63","","","test","rightarrow","0","2","TRUE","TRUE",""
"null","<div style=""font-size:60px;""> </div>","null","html-keyboard-response","601","1127432","0.0-32.0-2.63","","","fixation_2","","","","","",""
"null","img_1.bmp","null","image-keyboard-response","602","1128433","0.0-32.0-3.63","","","img_on","","","","","",""
"null","<div style=""font-size:60px;""> </div>","null","html-keyboard-response","603","1128734","0.0-32.0-4.63","","","fixation_3","","","","","",""
"null","<img src=""CC2.png"" width=200 height=200/>","null","html-keyboard-response","604","1129736","0.0-32.0-5.63","","","test","rightarrow","0","2","TRUE","TRUE",""
"null","<div style=""font-size:60px;""> </div>","null","html-keyboard-response","605","1130040","0.0-32.0-6.63","","","fixation_4","","","","","",""
"341.7999999821186","arrows.png","38","image-keyboard-response","606","1130382","0.0-32.0-7.63","","","test","rightarrow","0","2","TRUE","TRUE","false"
"null","<p style=""color: red; font-size:300%;"">incorrect: $0</p>","null","html-keyboard-response","607","1131635","0.0-32.0-8.63","","","","","","","","",""
"null","<div style=""font-size:60px;""> </div>","null","html-keyboard-response","608","1133196","0.0-32.0-0.64","","","fixation_1","","","","","",""
"null","switch_cue.png","null","image-keyboard-response","609","1134198","0.0-32.0-1.64","","","test","rightarrow","1","1","TRUE","TRUE",""
"null","<div style=""font-size:60px;""> </div>","null","html-keyboard-response","610","1134500","0.0-32.0-2.64","","","fixation_2","","","","","",""
"null","img_2.bmp","null","image-keyboard-response","611","1135502","0.0-32.0-3.64","","","img_on","","","","","",""
"null","<div style=""font-size:60px;""> </div>","null","html-keyboard-response","612","1135804","0.0-32.0-4.64","","","fixation_3","","","","","",""
"null","<img src=""CC1.png"" width=200 height=200/>","null","html-keyboard-response","613","1136806","0.0-32.0-5.64","","","test","rightarrow","1","1","TRUE","TRUE",""
"null","<div style=""font-size:60px;""> </div>","null","html-keyboard-response","614","1137107","0.0-32.0-6.64","","","fixation_4","","","","","",""
"705.9000000059605","arrows.png","39","image-keyboard-response","615","1137814","0.0-32.0-7.64","","","test","rightarrow","1","1","TRUE","TRUE","true"
"null","<p style=""color: green; font-size:300%;"">correct: $7.50</p>","null","html-keyboard-response","616","1139067","0.0-32.0-8.64","","","","","","","","",""
"null","<div style=""font-size:60px;""> </div>","null","html-keyboard-response","617","1140619","0.0-32.0-0.65","","","fixation_1","","","","","",""
"null","","null","image-keyboard-response","618","1140626","0.0-32.0-1.65","","","test","leftarrow","0","1","TRUE","FALSE",""
"null","<div style=""font-size:60px;""> </div>","null","html-keyboard-response","619","1140928","0.0-32.0-2.65","","","fixation_2","","","","","",""
"null","img_4.bmp","null","image-keyboard-response","620","1141930","0.0-32.0-3.65","","","img_on","","","","","",""
"null","<div style=""font-size:60px;""> </div>","null","html-keyboard-response","621","1142232","0.0-32.0-4.65","","","fixation_3","","","","","",""
"null","<img src=""CC1.png"" width=200 height=200/>","null","html-keyboard-response","622","1143235","0.0-32.0-5.65","","","test","leftarrow","0","1","TRUE","FALSE",""
"null","<div style=""font-size:60px;""> </div>","null","html-keyboard-response","623","1143536","0.0-32.0-6.65","","","fixation_4","","","","","",""
"325.69999998807907","arrows.png","37","image-keyboard-response","624","1143862","0.0-32.0-7.65","","","test","leftarrow","0","1","TRUE","FALSE","true"
"null","<p style=""color: green; font-size:300%;"">correct: $2.50</p>","null","html-keyboard-response","625","1145130","0.0-32.0-8.65","","","","","","","","",""
"null","<div style=""font-size:60px;""> </div>","null","html-keyboard-response","626","1146184","0.0-32.0-0.66","","","fixation_1","","","","","",""
"null","","null","image-keyboard-response","627","1146189","0.0-32.0-1.66","","","test","uparrow","1","1","TRUE","FALSE",""
"null","<div style=""font-size:60px;""> </div>","null","html-keyboard-response","628","1146491","0.0-32.0-2.66","","","fixation_2","","","","","",""
"null","img_1.bmp","null","image-keyboard-response","629","1147493","0.0-32.0-3.66","","","img_on","","","","","",""
"null","<div style=""font-size:60px;""> </div>","null","html-keyboard-response","630","1147794","0.0-32.0-4.66","","","fixation_3","","","","","",""
"null","<img src=""CC1.png"" width=200 height=200/>","null","html-keyboard-response","631","1148796","0.0-32.0-5.66","","","test","uparrow","1","1","TRUE","FALSE",""
"null","<div style=""font-size:60px;""> </div>","null","html-keyboard-response","632","1149097","0.0-32.0-6.66","","","fixation_4","","","","","",""
"716.3999999761581","arrows.png","37","image-keyboard-response","633","1149814","0.0-32.0-7.66","","","test","uparrow","1","1","TRUE","FALSE","false"
"null","<p style=""color: red; font-size:300%;"">incorrect: $0</p>","null","html-keyboard-response","634","1151065","0.0-32.0-8.66","","","","","","","","",""
"null","<div style=""font-size:60px;""> </div>","null","html-keyboard-response","635","1151867","0.0-32.0-0.67","","","fixation_1","","","","","",""
"null","","null","image-keyboard-response","636","1151873","0.0-32.0-1.67","","","test","downarrow","0","1","TRUE","FALSE",""
"null","<div style=""font-size:60px;""> </div>","null","html-keyboard-response","637","1152175","0.0-32.0-2.67","","","fixation_2","","","","","",""
"null","img_3.bmp","null","image-keyboard-response","638","1153177","0.0-32.0-3.67","","","img_on","","","","","",""
"null","<div style=""font-size:60px;""> </div>","null","html-keyboard-response","639","1153482","0.0-32.0-4.67","","","fixation_3","","","","","",""
"null","<img src=""CC1.png"" width=200 height=200/>","null","html-keyboard-response","640","1154484","0.0-32.0-5.67","","","test","downarrow","0","1","TRUE","FALSE",""
"null","<div style=""font-size:60px;""> </div>","null","html-keyboard-response","641","1154785","0.0-32.0-6.67","","","fixation_4","","","","","",""
"661.2000000178814","arrows.png","37","image-keyboard-response","642","1155447","0.0-32.0-7.67","","","test","downarrow","0","1","TRUE","FALSE","false"
"null","<p style=""color: red; font-size:300%;"">incorrect: $0</p>","null","html-keyboard-response","643","1156698","0.0-32.0-8.67","","","","","","","","",""
"null","<div style=""font-size:60px;""> </div>","null","html-keyboard-response","644","1157502","0.0-32.0-0.68","","","fixation_1","","","","","",""
"null","","null","image-keyboard-response","645","1157507","0.0-32.0-1.68","","","test","leftarrow","0","1","FALSE","FALSE",""
"null","<div style=""font-size:60px;""> </div>","null","html-keyboard-response","646","1157811","0.0-32.0-2.68","","","fixation_2","","","","","",""
"null","img_4.bmp","null","image-keyboard-response","647","1158813","0.0-32.0-3.68","","","img_on","","","","","",""
"null","<div style=""font-size:60px;""> </div>","null","html-keyboard-response","648","1159115","0.0-32.0-4.68","","","fixation_3","","","","","",""
"null","","null","html-keyboard-response","649","1159120","0.0-32.0-5.68","","","test","leftarrow","0","1","FALSE","FALSE",""
"null","<div style=""font-size:60px;""> </div>","null","html-keyboard-response","650","1159429","0.0-32.0-6.68","","","fixation_4","","","","","",""
"1815.800000011921","arrows.png","37","image-keyboard-response","651","1161246","0.0-32.0-7.68","","","test","leftarrow","0","1","FALSE","FALSE","true"
"null","<p style=""color: green; font-size:300%;"">correct: $2.50</p>","null","html-keyboard-response","652","1162498","0.0-32.0-8.68","","","","","","","","",""
"null","<div style=""font-size:60px;""> </div>","null","html-keyboard-response","653","1164050","0.0-32.0-0.69","","","fixation_1","","","","","",""
"null","","null","image-keyboard-response","654","1164057","0.0-32.0-1.69","","","test","rightarrow","1","1","FALSE","FALSE",""
"null","<div style=""font-size:60px;""> </div>","null","html-keyboard-response","655","1164359","0.0-32.0-2.69","","","fixation_2","","","","","",""
"null","img_2.bmp","null","image-keyboard-response","656","1165362","0.0-32.0-3.69","","","img_on","","","","","",""
"null","<div style=""font-size:60px;""> </div>","null","html-keyboard-response","657","1165663","0.0-32.0-4.69","","","fixation_3","","","","","",""
"null","","null","html-keyboard-response","658","1165668","0.0-32.0-5.69","","","test","rightarrow","1","1","FALSE","FALSE",""
"null","<div style=""font-size:60px;""> </div>","null","html-keyboard-response","659","1165970","0.0-32.0-6.69","","","fixation_4","","","","","",""
"2699.4000000059605","arrows.png","37","image-keyboard-response","660","1168670","0.0-32.0-7.69","","","test","rightarrow","1","1","FALSE","FALSE","false"
"null","<p style=""color: red; font-size:300%;"">incorrect: $0</p>","null","html-keyboard-response","661","1169922","0.0-32.0-8.69","","","","","","","","",""
"null","<div style=""font-size:60px;""> </div>","null","html-keyboard-response","662","1170974","0.0-32.0-0.70","","","fixation_1","","","","","",""
"null","","null","image-keyboard-response","663","1170980","0.0-32.0-1.70","","","test","uparrow","1","1","FALSE","FALSE",""
"null","<div style=""font-size:60px;""> </div>","null","html-keyboard-response","664","1171281","0.0-32.0-2.70","","","fixation_2","","","","","",""
"null","img_1.bmp","null","image-keyboard-response","665","1172284","0.0-32.0-3.70","","","img_on","","","","","",""
"null","<div style=""font-size:60px;""> </div>","null","html-keyboard-response","666","1172586","0.0-32.0-4.70","","","fixation_3","","","","","",""
"null","","null","html-keyboard-response","667","1172591","0.0-32.0-5.70","","","test","uparrow","1","1","FALSE","FALSE",""
"null","<div style=""font-size:60px;""> </div>","null","html-keyboard-response","668","1172893","0.0-32.0-6.70","","","fixation_4","","","","","",""
"2431.300000011921","arrows.png","37","image-keyboard-response","669","1175326","0.0-32.0-7.70","","","test","uparrow","1","1","FALSE","FALSE","false"
"null","<p style=""color: red; font-size:300%;"">incorrect: $0</p>","null","html-keyboard-response","670","1176578","0.0-32.0-8.70","","","","","","","","",""
"null","<div style=""font-size:60px;""> </div>","null","html-keyboard-response","671","1177630","0.0-32.0-0.71","","","fixation_1","","","","","",""
"null","","null","image-keyboard-response","672","1177636","0.0-32.0-1.71","","","test","downarrow","0","1","FALSE","FALSE",""
"null","<div style=""font-size:60px;""> </div>","null","html-keyboard-response","673","1177937","0.0-32.0-2.71","","","fixation_2","","","","","",""
"null","img_3.bmp","null","image-keyboard-response","674","1178938","0.0-32.0-3.71","","","img_on","","","","","",""
"null","<div style=""font-size:60px;""> </div>","null","html-keyboard-response","675","1179240","0.0-32.0-4.71","","","fixation_3","","","","","",""
"null","","null","html-keyboard-response","676","1179245","0.0-32.0-5.71","","","test","downarrow","0","1","FALSE","FALSE",""
"null","<div style=""font-size:60px;""> </div>","null","html-keyboard-response","677","1179548","0.0-32.0-6.71","","","fixation_4","","","","","",""
"2985.800000011921","arrows.png","38","image-keyboard-response","678","1182534","0.0-32.0-7.71","","","test","downarrow","0","1","FALSE","FALSE","false"
"null","<p style=""color: red; font-size:300%;"">incorrect: $0</p>","null","html-keyboard-response","679","1183787","0.0-32.0-8.71","","","","","","","","",""
"null","<div style=""font-size:60px;""> </div>","null","html-keyboard-response","680","1185339","0.0-32.0-0.72","","","fixation_1","","","","","",""
"null","","null","image-keyboard-response","681","1185344","0.0-32.0-1.72","","","test","uparrow","1","1","FALSE","FALSE",""
"null","<div style=""font-size:60px;""> </div>","null","html-keyboard-response","682","1185646","0.0-32.0-2.72","","","fixation_2","","","","","",""
"null","img_1.bmp","null","image-keyboard-response","683","1186647","0.0-32.0-3.72","","","img_on","","","","","",""
"null","<div style=""font-size:60px;""> </div>","null","html-keyboard-response","684","1186948","0.0-32.0-4.72","","","fixation_3","","","","","",""
"null","","null","html-keyboard-response","685","1186953","0.0-32.0-5.72","","","test","uparrow","1","1","FALSE","FALSE",""
"null","<div style=""font-size:60px;""> </div>","null","html-keyboard-response","686","1187254","0.0-32.0-6.72","","","fixation_4","","","","","",""
"1806.199999988079","arrows.png","37","image-keyboard-response","687","1189061","0.0-32.0-7.72","","","test","uparrow","1","1","FALSE","FALSE","false"
"null","<p style=""color: red; font-size:300%;"">incorrect: $0</p>","null","html-keyboard-response","688","1190340","0.0-32.0-8.72","","","","","","","","",""
"null","<div style=""font-size:60px;""> </div>","null","html-keyboard-response","689","1191893","0.0-32.0-0.73","","","fixation_1","","","","","",""
"null","","null","image-keyboard-response","690","1191898","0.0-32.0-1.73","","","test","downarrow","0","1","FALSE","FALSE",""
"null","<div style=""font-size:60px;""> </div>","null","html-keyboard-response","691","1192199","0.0-32.0-2.73","","","fixation_2","","","","","",""
"null","img_3.bmp","null","image-keyboard-response","692","1193201","0.0-32.0-3.73","","","img_on","","","","","",""
"null","<div style=""font-size:60px;""> </div>","null","html-keyboard-response","693","1193502","0.0-32.0-4.73","","","fixation_3","","","","","",""
